subject,session,mapping,run,trial_nr,orientation,value,reward,response,response_time
2,1,cdf,1,1,142.5,32.5,42.0,32.5,1.674435299999999
2,1,cdf,1,2,165.0,36.0,67.0,36.0,2.5584757000000025
2,1,cdf,1,3,127.5,31.5,42.0,30.0,1.9454160999999883
2,1,cdf,1,4,60.0,13.0,42.0,12.5,1.9808414999999968
2,1,cdf,1,5,45.0,12.0,42.0,11.0,2.1929853999999978
2,1,cdf,1,6,22.5,10.0,49.0,8.0,2.570285800000022
2,1,cdf,1,7,157.5,34.0,59.0,36.0,2.3668011999999976
2,1,cdf,1,8,67.5,14.0,51.0,14.0,1.6641218999999978
2,1,cdf,1,9,52.5,12.5,50.0,14.0,2.782489099999964
2,1,cdf,1,10,112.5,30.0,68.0,30.0,2.865075499999989
2,1,cdf,1,11,120.0,31.0,47.0,30.0,2.5820192999999563
2,1,cdf,1,12,37.5,11.5,42.0,12.0,1.8275785000000155
2,1,cdf,1,13,135.0,32.0,71.0,31.5,2.0279734000000076
2,1,cdf,1,14,150.0,33.0,60.5,33.0,2.134090599999979
2,1,cdf,1,15,172.5,38.5,0.0,,
2,1,cdf,1,16,15.0,8.0,42.0,8.0,1.4269235000000435
2,1,cdf,1,17,75.0,16.0,42.0,16.0,2.525878299999988
2,1,cdf,1,18,105.0,28.0,42.0,30.0,2.39344460000001
2,1,cdf,1,19,97.5,25.5,64.0,28.0,1.6861011000000303
2,1,cdf,1,20,7.5,5.5,0.0,,
2,1,cdf,1,21,82.5,18.5,42.0,16.0,2.0633042000000046
2,1,cdf,1,22,90.0,22.0,43.5,22.0,2.8885285000000067
2,1,cdf,1,23,30.0,11.0,46.5,11.0,2.2184250000000247
2,1,cdf,2,24,112.5,30.0,57.0,30.0,1.439095899999984
2,1,cdf,2,25,15.0,8.0,42.0,8.0,2.806328600000029
2,1,cdf,2,26,135.0,32.0,63.5,32.5,1.1089059000000248
2,1,cdf,2,27,67.5,14.0,42.0,16.0,2.771188499999994
2,1,cdf,2,28,127.5,31.5,53.0,32.0,2.26378470000003
2,1,cdf,2,29,60.0,13.0,45.0,12.0,1.6036280000000147
2,1,cdf,2,30,82.5,18.5,50.0,16.0,1.4382799999999634
2,1,cdf,2,31,22.5,10.0,42.0,10.0,0.8846495000000232
2,1,cdf,2,32,105.0,28.0,60.5,30.0,2.4288553000000093
2,1,cdf,2,33,165.0,36.0,45.5,36.0,1.6638004999999794
2,1,cdf,2,34,142.5,32.5,56.5,34.5,2.3227246999999807
2,1,cdf,2,35,7.5,5.5,42.0,5.5,1.308907999999974
2,1,cdf,2,36,90.0,22.0,56.0,22.0,1.80414159999998
2,1,cdf,2,37,120.0,31.0,42.0,30.0,1.8042805000000044
2,1,cdf,2,38,52.5,12.5,53.5,12.5,1.5092251999999462
2,1,cdf,2,39,97.5,25.5,42.0,25.5,1.8395907999999963
2,1,cdf,2,40,30.0,11.0,51.5,11.0,1.6164099000000078
2,1,cdf,2,41,37.5,11.5,48.0,12.0,1.1437573000000612
2,1,cdf,2,42,157.5,34.0,69.5,34.0,1.9583342000000812
2,1,cdf,2,43,45.0,12.0,42.0,13.5,1.9100725000000691
2,1,cdf,2,44,75.0,16.0,0.0,,
2,1,cdf,2,45,150.0,33.0,74.5,34.0,1.6040107000000037
2,1,cdf,2,46,172.5,38.5,42.0,38.0,2.417019800000048
2,1,cdf,3,47,60.0,13.0,42.0,12.5,1.4633289000000786
2,1,cdf,3,48,30.0,11.0,42.0,10.5,1.4979449999999588
2,1,cdf,3,49,90.0,22.0,58.5,22.0,2.3225482000000284
2,1,cdf,3,50,105.0,28.0,58.0,30.0,1.5694048000000294
2,1,cdf,3,51,142.5,32.5,64.5,35.0,1.8746977000000695
2,1,cdf,3,52,7.5,5.5,42.0,5.5,2.240052100000071
2,1,cdf,3,53,127.5,31.5,50.0,32.5,1.4501536999999871
2,1,cdf,3,54,120.0,31.0,61.0,31.0,1.3440489000000753
2,1,cdf,3,55,97.5,25.5,42.0,25.5,1.4974721000000957
2,1,cdf,3,56,22.5,10.0,42.0,11.5,1.958032800000069
2,1,cdf,3,57,135.0,32.0,50.0,33.0,2.1824856000000636
2,1,cdf,3,58,52.5,12.5,42.0,13.0,1.169354999999996
2,1,cdf,3,59,82.5,18.5,42.0,16.0,1.2617173999999522
2,1,cdf,3,60,45.0,12.0,42.0,12.0,2.4878130000000738
2,1,cdf,3,61,165.0,36.0,59.0,36.0,1.3914026000001058
2,1,cdf,3,62,37.5,11.5,42.0,11.5,2.0278114999999843
2,1,cdf,3,63,112.5,30.0,42.0,29.0,1.722222800000054
2,1,cdf,3,64,75.0,16.0,42.0,16.0,1.2993053000000143
2,1,cdf,3,65,15.0,8.0,42.0,11.5,2.1950552999999218
2,1,cdf,3,66,157.5,34.0,62.0,35.5,2.1837266000001136
2,1,cdf,3,67,150.0,33.0,54.0,34.0,2.028557800000044
2,1,cdf,3,68,172.5,38.5,54.5,39.0,1.5092566000000716
2,1,cdf,3,69,67.5,14.0,42.0,14.0,1.9815546999998332
2,1,cdf,4,70,37.5,11.5,42.0,11.5,1.702734099999816
2,1,cdf,4,71,97.5,25.5,66.5,25.5,1.1566741000001457
2,1,cdf,4,72,30.0,11.0,42.0,12.0,1.9924525999999787
2,1,cdf,4,73,67.5,14.0,43.0,15.5,2.6526280000000497
2,1,cdf,4,74,127.5,31.5,49.5,32.0,1.7096478000000843
2,1,cdf,4,75,150.0,33.0,42.5,34.5,1.745030799999995
2,1,cdf,4,76,45.0,12.0,42.0,14.0,1.3655155999999806
2,1,cdf,4,77,157.5,34.0,67.5,35.0,1.8982817000000975
2,1,cdf,4,78,120.0,31.0,42.0,30.0,1.8863668999999843
2,1,cdf,4,79,165.0,36.0,49.0,36.0,2.4170131000000765
2,1,cdf,4,80,15.0,8.0,42.0,10.0,2.8296649999999772
2,1,cdf,4,81,60.0,13.0,42.0,12.5,2.204789500000061
2,1,cdf,4,82,75.0,16.0,42.0,16.5,2.3225406999999905
2,1,cdf,4,83,7.5,5.5,42.0,5.5,2.522940399999925
2,1,cdf,4,84,112.5,30.0,49.0,30.5,2.795695999999907
2,1,cdf,4,85,22.5,10.0,42.0,11.5,2.1481315000000905
2,1,cdf,4,86,172.5,38.5,74.5,38.5,2.029914299999973
2,1,cdf,4,87,105.0,28.0,55.0,30.0,2.040021300000035
2,1,cdf,4,88,90.0,22.0,42.0,24.5,0.6369285999999192
2,1,cdf,4,89,82.5,18.5,42.0,18.5,1.662595900000042
2,1,cdf,4,90,135.0,32.0,60.5,34.0,2.523745299999973
2,1,cdf,4,91,52.5,12.5,42.0,14.0,2.158027899999979
2,1,cdf,4,92,142.5,32.5,51.5,32.0,2.758766400000013
2,1,cdf,5,93,30.0,11.0,42.0,12.5,1.3088583999999628
2,1,cdf,5,94,90.0,22.0,42.0,22.0,1.9572269000000233
2,1,cdf,5,95,112.5,30.0,42.0,30.0,1.414928800000098
2,1,cdf,5,96,60.0,13.0,42.0,14.0,1.8512869000001049
2,1,cdf,5,97,82.5,18.5,53.5,18.5,2.758966300000111
2,1,cdf,5,98,120.0,31.0,53.0,30.5,1.7802404999999908
2,1,cdf,5,99,157.5,34.0,53.5,36.0,2.00437809999994
2,1,cdf,5,100,67.5,14.0,42.0,14.0,2.464006599999948
2,1,cdf,5,101,142.5,32.5,58.0,34.0,2.3934180999999626
2,1,cdf,5,102,165.0,36.0,0.0,,
2,1,cdf,5,103,52.5,12.5,42.5,16.5,1.43881609999994
2,1,cdf,5,104,150.0,33.0,73.5,36.0,2.0867964999999913
2,1,cdf,5,105,7.5,5.5,42.0,5.5,2.1458145000001423
2,1,cdf,5,106,15.0,8.0,42.0,10.5,1.8871457000000191
2,1,cdf,5,107,172.5,38.5,51.5,37.5,2.511340999999902
2,1,cdf,5,108,22.5,10.0,42.0,11.0,2.0524789999999484
2,1,cdf,5,109,127.5,31.5,50.0,31.0,1.381354599999895
2,1,cdf,5,110,75.0,16.0,42.0,16.0,2.4304334999999355
2,1,cdf,5,111,135.0,32.0,57.0,33.0,1.9824650000000472
2,1,cdf,5,112,97.5,25.5,57.5,28.0,2.6774950999999874
2,1,cdf,5,113,105.0,28.0,67.5,25.5,2.7240220000001045
2,1,cdf,5,114,37.5,11.5,42.0,11.0,1.0503092999999808
2,1,cdf,5,115,45.0,12.0,42.0,13.5,2.7835149
2,1,cdf,6,116,15.0,8.0,40.5,10.0,1.9830431000000317
2,1,cdf,6,117,142.5,32.5,42.0,31.5,2.051562299999887
2,1,cdf,6,118,172.5,38.5,76.5,38.5,2.171163400000069
2,1,cdf,6,119,157.5,34.0,49.0,35.5,1.5459814999999253
2,1,cdf,6,120,90.0,22.0,42.0,22.0,2.358799500000032
2,1,cdf,6,121,97.5,25.5,42.0,25.5,1.509562300000198
2,1,cdf,6,122,105.0,28.0,47.0,30.0,2.3303496000000905
2,1,cdf,6,123,75.0,16.0,42.0,16.0,2.60567089999995
2,1,cdf,6,124,120.0,31.0,42.0,32.0,1.8511393999999657
2,1,cdf,6,125,22.5,10.0,48.0,10.5,2.3580637000000024
2,1,cdf,6,126,45.0,12.0,42.0,12.0,2.688941800000066
2,1,cdf,6,127,112.5,30.0,42.0,30.0,1.6272123000003376
2,1,cdf,6,128,165.0,36.0,60.0,36.0,1.945433000000321
2,1,cdf,6,129,52.5,12.5,45.0,16.0,2.1339138000003004
2,1,cdf,6,130,150.0,33.0,42.0,34.5,2.1929933000001256
2,1,cdf,6,131,82.5,18.5,42.0,18.5,2.488329499999963
2,1,cdf,6,132,30.0,11.0,42.0,13.5,2.0044613999998546
2,1,cdf,6,133,7.5,5.5,42.0,5.5,2.782493499999873
2,1,cdf,6,134,37.5,11.5,42.0,14.0,1.7568304000001262
2,1,cdf,6,135,127.5,31.5,44.0,31.0,1.8040922999998656
2,1,cdf,6,136,135.0,32.0,60.0,33.0,2.1576436999998805
2,1,cdf,6,137,60.0,13.0,42.0,16.0,1.9100515999998608
2,1,cdf,6,138,67.5,14.0,43.5,16.0,1.497715800000151
2,1,cdf,7,139,82.5,18.5,42.0,22.0,2.558490000000347
2,1,cdf,7,140,75.0,16.0,42.0,14.0,1.8039598000000296
2,1,cdf,7,141,67.5,14.0,42.0,15.0,2.145894799999951
2,1,cdf,7,142,112.5,30.0,42.0,30.0,1.9339104999999108
2,1,cdf,7,143,52.5,12.5,42.0,14.5,1.9219293999999536
2,1,cdf,7,144,60.0,13.0,49.0,14.0,2.5820364999999583
2,1,cdf,7,145,37.5,11.5,48.0,12.5,2.252031200000147
2,1,cdf,7,146,22.5,10.0,42.0,11.5,2.3697242000002916
2,1,cdf,7,147,157.5,34.0,63.0,36.0,1.3558428000001186
2,1,cdf,7,148,120.0,31.0,0.0,,
2,1,cdf,7,149,7.5,5.5,47.0,5.5,1.485809899999822
2,1,cdf,7,150,105.0,28.0,62.0,28.5,1.6624824000000444
2,1,cdf,7,151,142.5,32.5,48.0,34.0,1.8987319000002572
2,1,cdf,7,152,165.0,36.0,0.0,,
2,1,cdf,7,153,90.0,22.0,55.0,18.5,2.0280219000001125
2,1,cdf,7,154,172.5,38.5,68.0,38.0,1.9456989000000249
2,1,cdf,7,155,97.5,25.5,42.0,26.5,1.638954399999875
2,1,cdf,7,156,150.0,33.0,43.5,34.0,2.1458990000000995
2,1,cdf,7,157,30.0,11.0,42.0,12.0,2.0043720999997277
2,1,cdf,7,158,135.0,32.0,65.5,34.0,2.0868812999997317
2,1,cdf,7,159,45.0,12.0,42.5,14.0,2.4168949999998404
2,1,cdf,7,160,127.5,31.5,61.0,32.0,1.3680402999998478
2,1,cdf,7,161,15.0,8.0,44.0,9.0,1.8865255000000616
2,1,cdf,8,162,172.5,38.5,61.0,38.0,1.8395341000000371
2,1,cdf,8,163,37.5,11.5,42.0,14.5,2.004412700000102
2,1,cdf,8,164,135.0,32.0,62.0,34.0,1.8393294000002245
2,1,cdf,8,165,120.0,31.0,56.5,33.5,1.980819099999735
2,1,cdf,8,166,75.0,16.0,42.0,18.5,2.039590500000031
2,1,cdf,8,167,112.5,30.0,59.0,31.0,1.8747465000001284
2,1,cdf,8,168,60.0,13.0,42.0,14.5,2.2231168999996953
2,1,cdf,8,169,15.0,8.0,42.0,10.0,1.4385886999998547
2,1,cdf,8,170,165.0,36.0,76.0,36.0,2.2290932000000794
2,1,cdf,8,171,67.5,14.0,42.0,16.0,1.5208797000000231
2,1,cdf,8,172,90.0,22.0,42.0,19.0,2.086965400000281
2,1,cdf,8,173,142.5,32.5,66.0,34.5,1.7804251000002296
2,1,cdf,8,174,105.0,28.0,45.5,30.0,2.051392599999872
2,1,cdf,8,175,7.5,5.5,42.0,6.5,2.0869739999998274
2,1,cdf,8,176,97.5,25.5,59.5,25.5,2.2401371999999355
2,1,cdf,8,177,127.5,31.5,42.0,30.5,1.686383400000068
2,1,cdf,8,178,22.5,10.0,42.0,11.5,1.4162536999997428
2,1,cdf,8,179,30.0,11.0,42.0,13.5,2.2294181000002027
2,1,cdf,8,180,150.0,33.0,57.5,36.0,2.455290299999888
2,1,cdf,8,181,45.0,12.0,49.0,14.5,1.664057700000285
2,1,cdf,8,182,82.5,18.5,45.5,18.5,1.8763432000000648
2,1,cdf,8,183,52.5,12.5,42.0,14.5,2.4296322000000146
2,1,cdf,8,184,157.5,34.0,41.0,36.0,2.147581199999877
2,2,inverse_cdf,1,1,150.0,39.0,42.0,28.0,2.7745066000006773
2,2,inverse_cdf,1,2,120.0,25.5,45.0,25.5,2.711758700000246
2,2,inverse_cdf,1,3,37.5,7.5,42.0,11.5,1.593002999999953
2,2,inverse_cdf,1,4,90.0,22.0,53.5,22.0,1.8165694999997868
2,2,inverse_cdf,1,5,112.5,24.0,42.0,22.5,2.593821299999945
2,2,inverse_cdf,1,6,82.5,21.5,42.0,21.5,2.1587546999999176
2,2,inverse_cdf,1,7,52.5,16.0,0.0,,
2,2,inverse_cdf,1,8,165.0,41.0,45.0,41.0,2.251958900000318
2,2,inverse_cdf,1,9,157.5,40.0,44.0,41.0,2.217665000000125
2,2,inverse_cdf,1,10,75.0,21.0,42.0,21.5,2.2755630999999994
2,2,inverse_cdf,1,11,60.0,18.5,42.0,10.5,1.9703927000000476
2,2,inverse_cdf,1,12,30.0,5.0,42.0,4.0,1.7112200999999914
2,2,inverse_cdf,1,13,22.5,4.0,42.0,3.5,1.8511975000001255
2,2,inverse_cdf,1,14,45.0,11.5,42.0,7.5,2.1696876999994856
2,2,inverse_cdf,1,15,127.5,28.0,42.0,25.5,2.370551500000147
2,2,inverse_cdf,1,16,67.5,20.0,42.0,21.0,1.8043139999999769
2,2,inverse_cdf,1,17,15.0,3.0,42.0,3.0,1.9925737999992632
2,2,inverse_cdf,1,18,97.5,22.5,42.0,22.5,2.83205579999958
2,2,inverse_cdf,1,19,172.5,41.5,80.0,41.0,2.346132800000305
2,2,inverse_cdf,1,20,142.5,36.5,0.0,,
2,2,inverse_cdf,1,21,7.5,2.5,42.0,2.5,1.7450610999994751
2,2,inverse_cdf,1,22,105.0,23.0,54.0,25.0,1.9809232999996311
2,2,inverse_cdf,1,23,135.0,32.5,72.0,30.5,1.888019600000007
2,2,inverse_cdf,2,24,60.0,18.5,53.5,19.5,2.2793768999999884
2,2,inverse_cdf,2,25,22.5,4.0,42.0,4.0,2.819957599999725
2,2,inverse_cdf,2,26,157.5,40.0,77.5,39.5,2.0521493999995073
2,2,inverse_cdf,2,27,112.5,24.0,42.0,25.5,1.9932019999996555
2,2,inverse_cdf,2,28,15.0,3.0,43.0,2.5,1.7343475000006947
2,2,inverse_cdf,2,29,127.5,28.0,53.0,26.5,1.7922097999999096
2,2,inverse_cdf,2,30,45.0,11.5,42.0,16.0,2.251058699999703
2,2,inverse_cdf,2,31,7.5,2.5,42.0,2.5,2.0869108000006236
2,2,inverse_cdf,2,32,30.0,5.0,42.0,6.0,2.406540199999654
2,2,inverse_cdf,2,33,82.5,21.5,51.0,21.5,1.497449399999823
2,2,inverse_cdf,2,34,120.0,25.5,42.0,26.0,1.9692759999998088
2,2,inverse_cdf,2,35,105.0,23.0,43.0,23.0,2.1351776999999856
2,2,inverse_cdf,2,36,142.5,36.5,66.5,38.0,2.3825400000005175
2,2,inverse_cdf,2,37,150.0,39.0,77.5,39.5,2.1580936000000293
2,2,inverse_cdf,2,38,37.5,7.5,42.0,7.5,2.358357700000852
2,2,inverse_cdf,2,39,52.5,16.0,53.5,16.5,1.821669899999506
2,2,inverse_cdf,2,40,135.0,32.5,42.0,27.5,2.0868022000004203
2,2,inverse_cdf,2,41,97.5,22.5,42.0,22.5,2.0426133999999365
2,2,inverse_cdf,2,42,90.0,22.0,42.5,22.0,1.652490000000398
2,2,inverse_cdf,2,43,75.0,21.0,42.0,21.0,2.03998700000011
2,2,inverse_cdf,2,44,67.5,20.0,42.0,20.5,1.6878705999997692
2,2,inverse_cdf,2,45,172.5,41.5,53.0,41.5,2.51192489999994
2,2,inverse_cdf,2,46,165.0,41.0,82.0,41.0,1.7803839000007429
2,2,inverse_cdf,3,47,112.5,24.0,65.5,27.0,2.369992699999784
2,2,inverse_cdf,3,48,67.5,20.0,54.0,20.5,2.876630599999771
2,2,inverse_cdf,3,49,52.5,16.0,42.0,16.0,2.2400080999996135
2,2,inverse_cdf,3,50,37.5,7.5,42.0,13.5,2.4773716999998214
2,2,inverse_cdf,3,51,135.0,32.5,42.0,28.0,2.382024000000456
2,2,inverse_cdf,3,52,142.5,36.5,72.0,39.0,2.275810800000727
2,2,inverse_cdf,3,53,150.0,39.0,62.5,39.5,1.7450896000000284
2,2,inverse_cdf,3,54,97.5,22.5,42.0,22.5,2.417053600000145
2,2,inverse_cdf,3,55,90.0,22.0,42.0,22.0,2.310902199999873
2,2,inverse_cdf,3,56,82.5,21.5,59.5,21.5,1.120378300000084
2,2,inverse_cdf,3,57,15.0,3.0,42.0,3.0,2.122364199999538
2,2,inverse_cdf,3,58,45.0,11.5,42.0,11.0,2.16943320000064
2,2,inverse_cdf,3,59,7.5,2.5,42.0,2.5,2.004225000000588
2,2,inverse_cdf,3,60,165.0,41.0,56.5,41.0,2.228581000000304
2,2,inverse_cdf,3,61,60.0,18.5,47.0,21.0,2.230311299999812
2,2,inverse_cdf,3,62,172.5,41.5,66.0,41.5,2.134370700000545
2,2,inverse_cdf,3,63,157.5,40.0,58.0,40.0,2.310751199999686
2,2,inverse_cdf,3,64,120.0,25.5,42.0,28.5,1.9584448000005068
2,2,inverse_cdf,3,65,105.0,23.0,56.5,23.5,2.2401513999993767
2,2,inverse_cdf,3,66,127.5,28.0,42.0,25.5,2.263774099999864
2,2,inverse_cdf,3,67,30.0,5.0,44.5,7.5,2.370032199999514
2,2,inverse_cdf,3,68,22.5,4.0,43.5,6.0,2.1352317999999286
2,2,inverse_cdf,3,69,75.0,21.0,42.0,21.5,2.312168099999326
2,2,inverse_cdf,4,70,52.5,16.0,42.0,19.5,1.8993237999993653
2,2,inverse_cdf,4,71,45.0,11.5,42.0,16.0,1.3911607999998523
2,2,inverse_cdf,4,72,82.5,21.5,48.5,21.5,1.3204642000000604
2,2,inverse_cdf,4,73,157.5,40.0,65.5,39.5,2.204800200000136
2,2,inverse_cdf,4,74,150.0,39.0,64.0,39.5,2.1581479000005857
2,2,inverse_cdf,4,75,165.0,41.0,69.5,40.5,2.4172919000002366
2,2,inverse_cdf,4,76,142.5,36.5,42.0,32.5,1.8558829000003243
2,2,inverse_cdf,4,77,30.0,5.0,42.0,7.0,1.8866987000001243
2,2,inverse_cdf,4,78,37.5,7.5,42.0,10.0,1.7690319000003
2,2,inverse_cdf,4,79,135.0,32.5,42.0,28.0,2.040325500000108
2,2,inverse_cdf,4,80,60.0,18.5,42.0,21.0,1.9101236999995308
2,2,inverse_cdf,4,81,22.5,4.0,42.0,3.5,1.8158002000000124
2,2,inverse_cdf,4,82,112.5,24.0,42.0,23.0,2.452361600000586
2,2,inverse_cdf,4,83,105.0,23.0,42.0,23.0,2.3579092999998466
2,2,inverse_cdf,4,84,172.5,41.5,51.0,41.0,1.863877499999944
2,2,inverse_cdf,4,85,90.0,22.0,42.5,22.0,1.8156165000000328
2,2,inverse_cdf,4,86,120.0,25.5,66.0,28.5,1.697914999999739
2,2,inverse_cdf,4,87,7.5,2.5,42.0,2.5,2.7233650999996826
2,2,inverse_cdf,4,88,15.0,3.0,42.0,3.0,1.7332421999999497
2,2,inverse_cdf,4,89,75.0,21.0,57.0,21.5,1.945444099999804
2,2,inverse_cdf,4,90,97.5,22.5,47.0,22.5,1.5102837000004
2,2,inverse_cdf,4,91,67.5,20.0,42.0,21.0,1.2162452000002304
2,2,inverse_cdf,4,92,127.5,28.0,66.0,30.5,1.6863509999993769
2,2,inverse_cdf,5,93,127.5,28.0,63.5,28.0,1.6408215000001292
2,2,inverse_cdf,5,94,142.5,36.5,59.5,31.0,1.805125400000179
2,2,inverse_cdf,5,95,7.5,2.5,42.0,2.5,2.182337300000654
2,2,inverse_cdf,5,96,135.0,32.5,68.5,33.0,1.308882899999844
2,2,inverse_cdf,5,97,75.0,21.0,42.0,21.0,2.240231499999936
2,2,inverse_cdf,5,98,67.5,20.0,61.5,21.0,1.462481900000057
2,2,inverse_cdf,5,99,22.5,4.0,42.0,5.5,1.6475911999996242
2,2,inverse_cdf,5,100,30.0,5.0,42.0,5.5,1.9336395999998783
2,2,inverse_cdf,5,101,37.5,7.5,42.0,7.5,1.8156143000005611
2,2,inverse_cdf,5,102,112.5,24.0,48.5,22.5,2.2991029000004346
2,2,inverse_cdf,5,103,90.0,22.0,42.0,22.5,1.556473200000255
2,2,inverse_cdf,5,104,97.5,22.5,42.0,22.5,2.4169397999994544
2,2,inverse_cdf,5,105,165.0,41.0,70.5,41.0,1.5208841000003304
2,2,inverse_cdf,5,106,82.5,21.5,53.5,21.5,2.310868599999594
2,2,inverse_cdf,5,107,15.0,3.0,42.0,3.0,1.662347899999986
2,2,inverse_cdf,5,108,150.0,39.0,54.5,38.0,2.465762300000278
2,2,inverse_cdf,5,109,60.0,18.5,44.0,21.0,1.73353810000026
2,2,inverse_cdf,5,110,172.5,41.5,53.0,41.0,2.3012558000000354
2,2,inverse_cdf,5,111,105.0,23.0,43.0,22.5,2.8185163999996803
2,2,inverse_cdf,5,112,45.0,11.5,52.5,19.0,2.004228499999954
2,2,inverse_cdf,5,113,52.5,16.0,42.0,20.5,1.522641399999884
2,2,inverse_cdf,5,114,120.0,25.5,48.5,24.5,1.958681800000704
2,2,inverse_cdf,5,115,157.5,40.0,58.5,39.5,1.851142599999548
2,2,inverse_cdf,6,116,67.5,20.0,42.0,20.5,1.7115547000003062
2,2,inverse_cdf,6,117,82.5,21.5,42.0,21.5,2.393783099999382
2,2,inverse_cdf,6,118,60.0,18.5,47.5,21.5,1.6516026999997848
2,2,inverse_cdf,6,119,127.5,28.0,64.0,25.0,1.9928102000003491
2,2,inverse_cdf,6,120,30.0,5.0,46.0,7.5,1.0377392000000327
2,2,inverse_cdf,6,121,15.0,3.0,42.0,4.5,1.4974643000005017
2,2,inverse_cdf,6,122,90.0,22.0,42.0,22.0,1.7212987000002613
2,2,inverse_cdf,6,123,45.0,11.5,46.0,11.5,1.6748256999999285
2,2,inverse_cdf,6,124,7.5,2.5,42.5,2.5,1.4177902999999787
2,2,inverse_cdf,6,125,157.5,40.0,79.5,39.5,1.5917613000001438
2,2,inverse_cdf,6,126,150.0,39.0,58.0,38.5,1.7451350000001185
2,2,inverse_cdf,6,127,172.5,41.5,69.0,42.0,2.145834300000388
2,2,inverse_cdf,6,128,105.0,23.0,42.0,22.5,2.075146700000005
2,2,inverse_cdf,6,129,37.5,7.5,42.0,16.5,1.8629428999993252
2,2,inverse_cdf,6,130,97.5,22.5,58.5,22.5,2.4641091000003144
2,2,inverse_cdf,6,131,165.0,41.0,68.5,41.0,2.676352599999518
2,2,inverse_cdf,6,132,112.5,24.0,56.5,25.5,1.6979649000004429
2,2,inverse_cdf,6,133,52.5,16.0,42.0,20.5,1.9933248999996067
2,2,inverse_cdf,6,134,22.5,4.0,42.0,6.0,1.9808329999996204
2,2,inverse_cdf,6,135,75.0,21.0,62.5,21.5,2.5465140000005704
2,2,inverse_cdf,6,136,135.0,32.5,55.0,39.0,1.8747418000002656
2,2,inverse_cdf,6,137,120.0,25.5,49.0,32.5,1.3918855000001713
2,2,inverse_cdf,6,138,142.5,36.5,57.0,39.0,2.1222508999999263
2,2,inverse_cdf,7,139,150.0,39.0,69.5,21.5,1.004652800000258
2,2,inverse_cdf,7,140,97.5,22.5,52.0,22.5,2.5351824999997916
2,2,inverse_cdf,7,141,157.5,40.0,58.0,40.0,2.193078199999946
2,2,inverse_cdf,7,142,30.0,5.0,42.0,5.5,1.3913307999991955
2,2,inverse_cdf,7,143,82.5,21.5,57.0,21.5,1.8511232000000744
2,2,inverse_cdf,7,144,22.5,4.0,42.0,3.0,1.6507018000002065
2,2,inverse_cdf,7,145,142.5,36.5,64.5,39.5,1.7330934000001434
2,2,inverse_cdf,7,146,127.5,28.0,62.0,31.0,1.2497443000002022
2,2,inverse_cdf,7,147,45.0,11.5,43.0,11.5,1.3440387999999075
2,2,inverse_cdf,7,148,172.5,41.5,70.0,42.0,1.5092892000002394
2,2,inverse_cdf,7,149,37.5,7.5,42.0,9.5,1.2617135999998936
2,2,inverse_cdf,7,150,60.0,18.5,40.5,21.0,2.369735700000092
2,2,inverse_cdf,7,151,165.0,41.0,42.5,41.0,1.520908600000439
2,2,inverse_cdf,7,152,7.5,2.5,42.0,3.0,1.7451114000004964
2,2,inverse_cdf,7,153,105.0,23.0,58.5,23.0,2.5113810999991983
2,2,inverse_cdf,7,154,15.0,3.0,42.0,2.5,2.0632910000003903
2,2,inverse_cdf,7,155,75.0,21.0,42.0,21.5,1.92511420000028
2,2,inverse_cdf,7,156,120.0,25.5,41.5,29.0,1.5928407999999763
2,2,inverse_cdf,7,157,135.0,32.5,49.5,36.0,1.3458162999995693
2,2,inverse_cdf,7,158,90.0,22.0,42.0,22.0,1.4747275999998235
2,2,inverse_cdf,7,159,52.5,16.0,42.0,21.5,1.5802982000004704
2,2,inverse_cdf,7,160,67.5,20.0,50.0,21.0,2.1713510999998107
2,2,inverse_cdf,7,161,112.5,24.0,42.0,26.0,1.416781299999457
2,2,inverse_cdf,8,162,105.0,23.0,42.0,23.0,1.5929041999997935
2,2,inverse_cdf,8,163,97.5,22.5,64.0,22.5,1.9336786000003483
2,2,inverse_cdf,8,164,30.0,5.0,42.0,6.5,1.061763800000335
2,2,inverse_cdf,8,165,90.0,22.0,60.0,22.0,1.7804745000003095
2,2,inverse_cdf,8,166,22.5,4.0,41.5,7.0,1.5210728000001836
2,2,inverse_cdf,8,167,67.5,20.0,60.0,21.0,2.3348377000002074
2,2,inverse_cdf,8,168,157.5,40.0,69.0,40.0,1.367815900000096
2,2,inverse_cdf,8,169,60.0,18.5,42.0,21.0,1.4927450999994107
2,2,inverse_cdf,8,170,75.0,21.0,42.0,21.5,1.663035900000068
2,2,inverse_cdf,8,171,142.5,36.5,47.0,38.0,2.406061100000443
2,2,inverse_cdf,8,172,150.0,39.0,42.0,40.0,1.568728199999896
2,2,inverse_cdf,8,173,165.0,41.0,49.0,41.0,2.1812129999998433
2,2,inverse_cdf,8,174,172.5,41.5,52.5,41.5,2.358089100000143
2,2,inverse_cdf,8,175,127.5,28.0,42.0,27.5,1.7567579000005935
2,2,inverse_cdf,8,176,82.5,21.5,61.0,21.0,1.7568514000004145
2,2,inverse_cdf,8,177,45.0,11.5,42.0,9.5,1.6977393000006489
2,2,inverse_cdf,8,178,112.5,24.0,42.0,26.0,2.017073499999242
2,2,inverse_cdf,8,179,7.5,2.5,42.0,2.5,1.8907778000002509
2,2,inverse_cdf,8,180,120.0,25.5,66.0,31.0,1.6152077000006102
2,2,inverse_cdf,8,181,135.0,32.5,71.5,35.0,1.1792396000000736
2,2,inverse_cdf,8,182,15.0,3.0,42.0,3.0,1.498609199999919
2,2,inverse_cdf,8,183,37.5,7.5,42.0,13.5,1.4031396000000314
2,2,inverse_cdf,8,184,52.5,16.0,42.0,20.5,2.2991458999995302
3,1,inverse_cdf,1,1,120.0,25.5,42.0,28.0,2.7495705999999984
3,1,inverse_cdf,1,2,105.0,23.0,54.0,23.0,1.8158250999999836
3,1,inverse_cdf,1,3,135.0,32.5,42.5,36.5,1.6154302999999857
3,1,inverse_cdf,1,4,67.5,20.0,42.0,7.5,2.7825679000000036
3,1,inverse_cdf,1,5,37.5,7.5,44.5,7.5,1.474131299999982
3,1,inverse_cdf,1,6,82.5,21.5,42.0,21.5,2.134114000000011
3,1,inverse_cdf,1,7,60.0,18.5,0.0,,
3,1,inverse_cdf,1,8,15.0,3.0,42.0,3.0,2.1229485999999724
3,1,inverse_cdf,1,9,150.0,39.0,70.0,36.5,1.4974612999999977
3,1,inverse_cdf,1,10,52.5,16.0,42.0,16.0,1.8641106000000036
3,1,inverse_cdf,1,11,112.5,24.0,42.0,23.0,2.3815267999999605
3,1,inverse_cdf,1,12,45.0,11.5,42.0,11.5,1.6625606000000062
3,1,inverse_cdf,1,13,165.0,41.0,63.0,41.0,2.3950648999999657
3,1,inverse_cdf,1,14,97.5,22.5,45.5,22.5,1.792327499999999
3,1,inverse_cdf,1,15,172.5,41.5,72.5,41.5,1.9924773999999843
3,1,inverse_cdf,1,16,22.5,4.0,42.0,5.0,1.7944846000000323
3,1,inverse_cdf,1,17,127.5,28.0,65.5,32.5,2.7247514000000024
3,1,inverse_cdf,1,18,157.5,40.0,48.5,39.0,2.572904199999982
3,1,inverse_cdf,1,19,75.0,21.0,0.0,,
3,1,inverse_cdf,1,20,90.0,22.0,42.5,22.0,1.0612381999999911
3,1,inverse_cdf,1,21,30.0,5.0,42.0,7.5,1.0171032000000082
3,1,inverse_cdf,1,22,142.5,36.5,77.5,36.5,1.3322636999999986
3,1,inverse_cdf,1,23,7.5,2.5,42.0,2.5,2.0880935999999792
3,1,inverse_cdf,2,24,67.5,20.0,42.0,16.0,2.3361262999999894
3,1,inverse_cdf,2,25,15.0,3.0,42.0,3.0,2.0517877999999996
3,1,inverse_cdf,2,26,135.0,32.5,61.0,32.5,1.4503395999999498
3,1,inverse_cdf,2,27,60.0,18.5,42.0,18.5,1.8156933999999865
3,1,inverse_cdf,2,28,105.0,23.0,57.5,24.0,0.861744099999953
3,1,inverse_cdf,2,29,22.5,4.0,42.0,4.0,2.133922900000016
3,1,inverse_cdf,2,30,142.5,36.5,42.0,36.5,1.73334490000002
3,1,inverse_cdf,2,31,75.0,21.0,42.0,21.0,2.534961199999998
3,1,inverse_cdf,2,32,165.0,41.0,44.5,40.0,2.253334499999937
3,1,inverse_cdf,2,33,97.5,22.5,42.0,22.5,1.285276099999919
3,1,inverse_cdf,2,34,37.5,7.5,42.0,11.5,1.4267205999999533
3,1,inverse_cdf,2,35,7.5,2.5,42.0,2.5,1.1556173000000172
3,1,inverse_cdf,2,36,120.0,25.5,42.0,25.5,1.7332333000000515
3,1,inverse_cdf,2,37,127.5,28.0,60.0,32.5,1.803992600000015
3,1,inverse_cdf,2,38,112.5,24.0,57.0,24.0,1.8982945999999856
3,1,inverse_cdf,2,39,82.5,21.5,45.0,21.0,1.3444260999999642
3,1,inverse_cdf,2,40,30.0,5.0,41.5,7.5,1.4742800999999872
3,1,inverse_cdf,2,41,150.0,39.0,60.0,36.5,2.4660310999998956
3,1,inverse_cdf,2,42,90.0,22.0,48.0,22.0,1.217787899999962
3,1,inverse_cdf,2,43,172.5,41.5,56.0,41.0,1.4623073000000204
3,1,inverse_cdf,2,44,45.0,11.5,42.0,11.5,1.3577426999999034
3,1,inverse_cdf,2,45,52.5,16.0,47.0,11.5,2.310893299999975
3,1,inverse_cdf,2,46,157.5,40.0,71.5,38.5,2.440619599999991
3,1,inverse_cdf,3,47,97.5,22.5,63.5,22.5,1.5800385000000006
3,1,inverse_cdf,3,48,172.5,41.5,81.0,41.0,2.1457392999999456
3,1,inverse_cdf,3,49,157.5,40.0,70.0,39.0,1.8040287999999691
3,1,inverse_cdf,3,50,112.5,24.0,42.0,23.0,1.3796416000000136
3,1,inverse_cdf,3,51,37.5,7.5,42.0,7.5,1.9219862000001056
3,1,inverse_cdf,3,52,15.0,3.0,0.0,,
3,1,inverse_cdf,3,53,45.0,11.5,47.5,11.5,1.1791468000000125
3,1,inverse_cdf,3,54,150.0,39.0,68.5,36.5,1.2263072000000648
3,1,inverse_cdf,3,55,52.5,16.0,57.5,11.5,1.9457227999999984
3,1,inverse_cdf,3,56,105.0,23.0,46.0,22.5,0.801935100000037
3,1,inverse_cdf,3,57,60.0,18.5,42.0,16.0,0.9201298000000406
3,1,inverse_cdf,3,58,142.5,36.5,71.5,33.0,2.440418300000033
3,1,inverse_cdf,3,59,135.0,32.5,62.0,32.5,1.485759700000017
3,1,inverse_cdf,3,60,22.5,4.0,42.0,5.0,1.5683284000000413
3,1,inverse_cdf,3,61,90.0,22.0,59.0,22.0,1.6641932000001134
3,1,inverse_cdf,3,62,7.5,2.5,42.0,2.5,1.5686077000000296
3,1,inverse_cdf,3,63,120.0,25.5,54.0,24.5,1.6490896999999904
3,1,inverse_cdf,3,64,75.0,21.0,42.0,21.0,1.6405195999999478
3,1,inverse_cdf,3,65,82.5,21.5,42.0,21.5,1.7922194999999874
3,1,inverse_cdf,3,66,127.5,28.0,53.0,28.0,1.8395084999999656
3,1,inverse_cdf,3,67,67.5,20.0,42.0,18.5,1.273523999999952
3,1,inverse_cdf,3,68,30.0,5.0,42.0,5.0,2.1813101999998707
3,1,inverse_cdf,3,69,165.0,41.0,49.5,40.0,1.922349899999972
3,1,inverse_cdf,4,70,157.5,40.0,74.0,39.0,1.6159201999998911
3,1,inverse_cdf,4,71,60.0,18.5,42.0,11.5,2.0398382999999285
3,1,inverse_cdf,4,72,120.0,25.5,42.0,25.5,0.9198584000000664
3,1,inverse_cdf,4,73,75.0,21.0,42.0,20.0,1.9337726999999632
3,1,inverse_cdf,4,74,172.5,41.5,50.5,41.0,1.7568786999997883
3,1,inverse_cdf,4,75,82.5,21.5,43.0,21.5,1.532931299999973
3,1,inverse_cdf,4,76,22.5,4.0,42.0,5.0,2.6842891000001146
3,1,inverse_cdf,4,77,150.0,39.0,48.5,36.5,1.4149684999999863
3,1,inverse_cdf,4,78,97.5,22.5,61.0,22.5,1.8277106000000456
3,1,inverse_cdf,4,79,112.5,24.0,42.0,24.0,0.956333500000028
3,1,inverse_cdf,4,80,7.5,2.5,42.0,2.5,1.4739300000001094
3,1,inverse_cdf,4,81,67.5,20.0,42.0,16.0,1.2380818000001454
3,1,inverse_cdf,4,82,165.0,41.0,75.0,38.5,2.2753753999998025
3,1,inverse_cdf,4,83,45.0,11.5,42.0,11.5,2.0161940999998933
3,1,inverse_cdf,4,84,15.0,3.0,42.0,3.0,1.7699396000000434
3,1,inverse_cdf,4,85,127.5,28.0,42.0,25.0,2.0751299999999446
3,1,inverse_cdf,4,86,90.0,22.0,61.0,22.0,1.4414414999998826
3,1,inverse_cdf,4,87,52.5,16.0,42.0,11.5,2.0284017999999833
3,1,inverse_cdf,4,88,135.0,32.5,60.5,32.0,2.3817159999998694
3,1,inverse_cdf,4,89,105.0,23.0,49.5,23.0,1.0260137000000211
3,1,inverse_cdf,4,90,142.5,36.5,42.0,26.0,2.4289435999999114
3,1,inverse_cdf,4,91,37.5,7.5,42.0,7.5,1.2628434999999172
3,1,inverse_cdf,4,92,30.0,5.0,42.0,5.0,2.2285310999998273
3,1,inverse_cdf,5,93,135.0,32.5,42.0,32.5,1.4282255999999052
3,1,inverse_cdf,5,94,112.5,24.0,42.0,24.0,1.0730924999998024
3,1,inverse_cdf,5,95,172.5,41.5,75.5,39.0,2.3580738999999085
3,1,inverse_cdf,5,96,82.5,21.5,47.0,21.0,1.8276072999999544
3,1,inverse_cdf,5,97,37.5,7.5,42.0,7.5,1.120636600000125
3,1,inverse_cdf,5,98,30.0,5.0,45.5,7.5,2.2282466999999997
3,1,inverse_cdf,5,99,105.0,23.0,48.0,23.0,1.120289400000047
3,1,inverse_cdf,5,100,45.0,11.5,42.0,11.5,1.9690129000000525
3,1,inverse_cdf,5,101,165.0,41.0,66.5,39.0,1.5800758999998834
3,1,inverse_cdf,5,102,67.5,20.0,49.5,16.0,2.0516022000001612
3,1,inverse_cdf,5,103,97.5,22.5,42.5,23.0,1.8629190999999992
3,1,inverse_cdf,5,104,157.5,40.0,78.0,36.5,1.911479800000052
3,1,inverse_cdf,5,105,75.0,21.0,55.0,18.5,1.4867481999999654
3,1,inverse_cdf,5,106,15.0,3.0,42.0,4.0,1.815764599999966
3,1,inverse_cdf,5,107,150.0,39.0,53.5,32.5,1.686067100000173
3,1,inverse_cdf,5,108,142.5,36.5,42.0,28.5,2.0635125000001153
3,1,inverse_cdf,5,109,127.5,28.0,55.0,25.5,1.615674399999989
3,1,inverse_cdf,5,110,120.0,25.5,59.0,25.5,1.5919189999999617
3,1,inverse_cdf,5,111,60.0,18.5,42.0,16.0,1.8867103000000045
3,1,inverse_cdf,5,112,90.0,22.0,47.0,22.0,1.2617457999999715
3,1,inverse_cdf,5,113,7.5,2.5,42.0,2.5,1.3324107999999342
3,1,inverse_cdf,5,114,22.5,4.0,42.0,4.0,1.498329799999965
3,1,inverse_cdf,5,115,52.5,16.0,42.0,8.0,2.4536743000001024
3,1,inverse_cdf,6,116,52.5,16.0,42.0,11.5,1.1701402999999573
3,1,inverse_cdf,6,117,97.5,22.5,42.0,22.5,1.3914310999998634
3,1,inverse_cdf,6,118,22.5,4.0,42.0,3.0,1.874805300000162
3,1,inverse_cdf,6,119,127.5,28.0,65.5,33.5,2.4759272000001147
3,1,inverse_cdf,6,120,120.0,25.5,67.0,25.5,2.0165113999998994
3,1,inverse_cdf,6,121,30.0,5.0,0.0,,
3,1,inverse_cdf,6,122,112.5,24.0,42.5,24.0,1.8749067999999625
3,1,inverse_cdf,6,123,90.0,22.0,42.0,22.0,1.075311299999839
3,1,inverse_cdf,6,124,15.0,3.0,42.0,4.0,1.4739293999998608
3,1,inverse_cdf,6,125,45.0,11.5,42.0,7.5,1.463815299999851
3,1,inverse_cdf,6,126,105.0,23.0,51.0,24.0,1.6269827999999509
3,1,inverse_cdf,6,127,172.5,41.5,66.0,40.0,1.5682284999998046
3,1,inverse_cdf,6,128,60.0,18.5,42.0,11.5,1.8283405999998197
3,1,inverse_cdf,6,129,75.0,21.0,42.0,16.5,2.5585612999998375
3,1,inverse_cdf,6,130,37.5,7.5,42.0,7.5,1.2264789000000746
3,1,inverse_cdf,6,131,82.5,21.5,51.5,21.0,1.993000800000118
3,1,inverse_cdf,6,132,135.0,32.5,73.5,32.5,1.2971975000000384
3,1,inverse_cdf,6,133,67.5,20.0,42.0,16.0,1.3584074999998847
3,1,inverse_cdf,6,134,157.5,40.0,72.0,36.5,1.5093199000000368
3,1,inverse_cdf,6,135,7.5,2.5,42.0,2.5,1.662559500000043
3,1,inverse_cdf,6,136,142.5,36.5,42.0,31.5,1.5916380999999546
3,1,inverse_cdf,6,137,150.0,39.0,42.0,36.0,2.1223081000000548
3,1,inverse_cdf,6,138,165.0,41.0,61.5,40.0,1.3805528000000322
3,1,inverse_cdf,7,139,67.5,20.0,42.0,11.5,1.5345108000001346
3,1,inverse_cdf,7,140,45.0,11.5,42.0,11.5,1.9219286000002285
3,1,inverse_cdf,7,141,127.5,28.0,64.5,25.5,1.4268222000000603
3,1,inverse_cdf,7,142,37.5,7.5,42.0,7.5,0.9199085999998716
3,1,inverse_cdf,7,143,135.0,32.5,50.0,32.0,1.7566843999998127
3,1,inverse_cdf,7,144,172.5,41.5,68.5,40.5,1.910131299999648
3,1,inverse_cdf,7,145,112.5,24.0,58.0,25.5,1.5918142999998963
3,1,inverse_cdf,7,146,157.5,40.0,63.0,35.5,2.0398559999998724
3,1,inverse_cdf,7,147,97.5,22.5,49.0,22.5,1.2145923000002767
3,1,inverse_cdf,7,148,30.0,5.0,42.0,7.0,2.2167841999998927
3,1,inverse_cdf,7,149,90.0,22.0,42.0,22.0,1.250226999999995
3,1,inverse_cdf,7,150,60.0,18.5,42.0,11.5,1.674323600000207
3,1,inverse_cdf,7,151,165.0,41.0,49.5,39.5,1.6035979000002951
3,1,inverse_cdf,7,152,75.0,21.0,42.0,16.0,0.7666331999998874
3,1,inverse_cdf,7,153,7.5,2.5,42.0,2.5,1.2380076999997982
3,1,inverse_cdf,7,154,120.0,25.5,59.0,25.5,1.4975288999999066
3,1,inverse_cdf,7,155,22.5,4.0,42.0,4.0,2.2533056000002034
3,1,inverse_cdf,7,156,82.5,21.5,42.0,20.5,2.0163049999996474
3,1,inverse_cdf,7,157,52.5,16.0,42.0,11.5,1.5926973000000544
3,1,inverse_cdf,7,158,142.5,36.5,42.0,36.5,1.2754424999998264
3,1,inverse_cdf,7,159,105.0,23.0,43.0,24.0,1.5682974999999717
3,1,inverse_cdf,7,160,15.0,3.0,42.5,4.0,2.0985554000003503
3,1,inverse_cdf,7,161,150.0,39.0,64.5,36.5,1.8629846000003456
3,1,inverse_cdf,8,162,105.0,23.0,42.0,22.5,1.9470869999995557
3,1,inverse_cdf,8,163,7.5,2.5,42.0,2.5,1.3455980000003365
3,1,inverse_cdf,8,164,112.5,24.0,42.0,24.0,1.827637700000196
3,1,inverse_cdf,8,165,22.5,4.0,42.0,5.0,1.4385331000003134
3,1,inverse_cdf,8,166,120.0,25.5,58.5,25.0,1.2734615000003942
3,1,inverse_cdf,8,167,30.0,5.0,42.0,4.5,1.7569093000001883
3,1,inverse_cdf,8,168,37.5,7.5,42.0,7.5,2.028714300000047
3,1,inverse_cdf,8,169,97.5,22.5,46.0,22.5,1.628765200000089
3,1,inverse_cdf,8,170,45.0,11.5,42.0,10.5,1.285262899999907
3,1,inverse_cdf,8,171,172.5,41.5,60.0,41.0,1.2497618000002149
3,1,inverse_cdf,8,172,127.5,28.0,64.0,36.5,1.591765000000123
3,1,inverse_cdf,8,173,142.5,36.5,58.0,39.0,1.9572084999999788
3,1,inverse_cdf,8,174,60.0,18.5,42.0,16.0,1.874846499999876
3,1,inverse_cdf,8,175,135.0,32.5,67.5,32.0,2.2165780999998788
3,1,inverse_cdf,8,176,157.5,40.0,42.0,38.5,1.9100790999996209
3,1,inverse_cdf,8,177,15.0,3.0,42.0,3.0,1.3442423999999846
3,1,inverse_cdf,8,178,67.5,20.0,61.0,15.0,2.075146600000153
3,1,inverse_cdf,8,179,90.0,22.0,53.0,22.0,0.8150808000000325
3,1,inverse_cdf,8,180,52.5,16.0,57.5,11.5,1.1446946999999454
3,1,inverse_cdf,8,181,150.0,39.0,68.0,36.5,1.792307400000027
3,1,inverse_cdf,8,182,82.5,21.5,42.0,21.5,1.9572229000000336
3,1,inverse_cdf,8,183,75.0,21.0,42.0,20.0,1.167362900000171
3,1,inverse_cdf,8,184,165.0,41.0,42.0,39.0,1.5683101999998144
3,2,cdf,1,1,165.0,36.0,42.0,34.0,2.3126783999996405
3,2,cdf,1,2,15.0,8.0,42.0,8.0,1.862944299999981
3,2,cdf,1,3,105.0,28.0,42.0,28.0,1.0259724999996251
3,2,cdf,1,4,82.5,18.5,42.0,18.5,1.167429600000105
3,2,cdf,1,5,7.5,5.5,42.0,5.5,1.2617155999996612
3,2,cdf,1,6,172.5,38.5,44.0,38.5,2.07519609999963
3,2,cdf,1,7,45.0,12.0,42.0,11.5,0.9434083000005558
3,2,cdf,1,8,37.5,11.5,42.0,10.0,1.3795411999999487
3,2,cdf,1,9,135.0,32.0,73.0,32.0,1.3442805000004228
3,2,cdf,1,10,30.0,11.0,42.0,8.0,2.322530500000539
3,2,cdf,1,11,75.0,16.0,49.0,14.0,1.5210864000000583
3,2,cdf,1,12,90.0,22.0,42.0,22.0,1.933646399999816
3,2,cdf,1,13,142.5,32.5,42.0,33.0,1.3795583999999508
3,2,cdf,1,14,112.5,30.0,42.0,28.0,1.8039904999995997
3,2,cdf,1,15,150.0,33.0,66.0,33.0,1.5093165999996927
3,2,cdf,1,16,60.0,13.0,43.5,12.0,0.8726705999997648
3,2,cdf,1,17,52.5,12.5,42.0,11.5,1.3090008999997735
3,2,cdf,1,18,157.5,34.0,53.0,34.0,2.042213200000333
3,2,cdf,1,19,67.5,14.0,42.0,13.0,2.523295899999539
3,2,cdf,1,20,22.5,10.0,46.0,8.0,1.0750982999998089
3,2,cdf,1,21,127.5,31.5,42.0,31.5,1.6507880999997724
3,2,cdf,1,22,97.5,25.5,54.0,25.5,1.579990899999757
3,2,cdf,1,23,120.0,31.0,61.5,30.0,1.5917886999995972
3,2,cdf,2,24,157.5,34.0,74.0,36.0,2.0294150999998237
3,2,cdf,2,25,172.5,38.5,42.0,38.5,1.6978907000002437
3,2,cdf,2,26,15.0,8.0,42.0,8.0,2.322695599999861
3,2,cdf,2,27,45.0,12.0,51.0,11.5,1.9337377000001652
3,2,cdf,2,28,165.0,36.0,75.5,34.0,1.5682086000006166
3,2,cdf,2,29,7.5,5.5,42.0,5.5,2.2874366000005466
3,2,cdf,2,30,90.0,22.0,62.5,22.0,1.5054796999993414
3,2,cdf,2,31,142.5,32.5,59.5,32.5,1.8981323999996675
3,2,cdf,2,32,60.0,13.0,42.0,12.5,2.358108899999934
3,2,cdf,2,33,22.5,10.0,42.0,10.0,1.7686796000007234
3,2,cdf,2,34,150.0,33.0,56.5,32.5,2.2167835000000196
3,2,cdf,2,35,37.5,11.5,42.0,11.0,2.3933971999995265
3,2,cdf,2,36,120.0,31.0,42.0,28.0,2.0870195999996213
3,2,cdf,2,37,127.5,31.5,44.5,31.0,2.6763897999999244
3,2,cdf,2,38,105.0,28.0,53.0,25.5,2.4647618999997576
3,2,cdf,2,39,67.5,14.0,43.5,13.0,1.628128299999844
3,2,cdf,2,40,82.5,18.5,46.0,18.5,1.9345128999993904
3,2,cdf,2,41,112.5,30.0,42.0,28.0,1.756919200000084
3,2,cdf,2,42,30.0,11.0,42.0,10.0,1.438620400000218
3,2,cdf,2,43,135.0,32.0,67.5,32.0,2.9239563000001
3,2,cdf,2,44,75.0,16.0,42.0,14.0,2.004408499999954
3,2,cdf,2,45,97.5,25.5,42.0,25.5,1.8410012999993344
3,2,cdf,2,46,52.5,12.5,46.5,11.0,2.9013640999992276
3,2,cdf,3,47,135.0,32.0,42.0,31.5,2.4657139999999345
3,2,cdf,3,48,60.0,13.0,42.0,12.5,1.7332527999997185
3,2,cdf,3,49,157.5,34.0,42.0,33.0,2.3934826999993675
3,2,cdf,3,50,7.5,5.5,44.0,5.5,1.6391051000000516
3,2,cdf,3,51,37.5,11.5,42.0,11.0,1.557017299999643
3,2,cdf,3,52,120.0,31.0,67.5,28.0,2.9594051000003674
3,2,cdf,3,53,52.5,12.5,42.0,11.5,2.6645685999992565
3,2,cdf,3,54,75.0,16.0,48.5,16.0,1.6389881000004607
3,2,cdf,3,55,112.5,30.0,0.0,,
3,2,cdf,3,56,67.5,14.0,42.0,12.5,1.3088846000000558
3,2,cdf,3,57,22.5,10.0,42.0,8.0,1.5564457000000402
3,2,cdf,3,58,97.5,25.5,42.0,25.5,2.110543599999801
3,2,cdf,3,59,82.5,18.5,42.0,18.5,1.7568255999995015
3,2,cdf,3,60,30.0,11.0,42.0,10.0,1.3322779999998602
3,2,cdf,3,61,127.5,31.5,42.0,31.5,1.709642700000586
3,2,cdf,3,62,172.5,38.5,42.0,38.5,1.7223201000006156
3,2,cdf,3,63,142.5,32.5,42.0,32.5,2.477142100000492
3,2,cdf,3,64,105.0,28.0,42.0,28.0,1.9574843999998848
3,2,cdf,3,65,90.0,22.0,45.0,22.0,0.8490759999995134
3,2,cdf,3,66,15.0,8.0,42.0,7.5,2.1107882999995127
3,2,cdf,3,67,150.0,33.0,73.5,33.0,1.568460800000139
3,2,cdf,3,68,165.0,36.0,42.0,34.0,1.5818951999999626
3,2,cdf,3,69,45.0,12.0,42.0,11.0,2.3109442999993917
3,2,cdf,4,70,172.5,38.5,57.5,38.5,2.1458564000004117
3,2,cdf,4,71,165.0,36.0,42.0,34.0,1.4265633999993952
3,2,cdf,4,72,120.0,31.0,42.0,30.0,1.7804267000001346
3,2,cdf,4,73,142.5,32.5,42.0,33.0,1.6387823999993998
3,2,cdf,4,74,15.0,8.0,42.0,8.0,1.3442714000002525
3,2,cdf,4,75,37.5,11.5,42.0,11.5,1.8634126999995717
3,2,cdf,4,76,60.0,13.0,42.0,12.5,1.768812600000274
3,2,cdf,4,77,75.0,16.0,49.5,14.0,1.8865843000003224
3,2,cdf,4,78,112.5,30.0,45.0,28.0,1.6389172999997754
3,2,cdf,4,79,67.5,14.0,42.0,12.5,1.5328749999998763
3,2,cdf,4,80,97.5,25.5,42.0,25.5,1.6743479000006118
3,2,cdf,4,81,157.5,34.0,68.5,36.0,1.698042099999839
3,2,cdf,4,82,22.5,10.0,48.0,10.0,1.2982359999996331
3,2,cdf,4,83,105.0,28.0,50.0,25.5,1.7567077000003335
3,2,cdf,4,84,150.0,33.0,66.0,34.0,1.89836860000014
3,2,cdf,4,85,82.5,18.5,42.0,18.5,1.6035516000001735
3,2,cdf,4,86,135.0,32.0,64.5,31.0,2.619266100000459
3,2,cdf,4,87,30.0,11.0,42.0,11.0,1.4640135999998165
3,2,cdf,4,88,45.0,12.0,42.0,12.0,2.122349000000213
3,2,cdf,4,89,52.5,12.5,42.0,12.0,2.0397671999999147
3,2,cdf,4,90,127.5,31.5,68.0,32.0,2.405179600000338
3,2,cdf,4,91,90.0,22.0,42.0,22.0,1.6625147999993717
3,2,cdf,4,92,7.5,5.5,42.0,5.5,1.886479399999189
3,2,cdf,5,93,150.0,33.0,69.0,32.5,1.8414929000000484
3,2,cdf,5,94,142.5,32.5,42.0,32.5,1.6743162000002485
3,2,cdf,5,95,90.0,22.0,42.0,22.0,1.556262600000082
3,2,cdf,5,96,22.5,10.0,42.0,8.0,1.3327669000000242
3,2,cdf,5,97,165.0,36.0,42.0,34.0,1.5686187999999677
3,2,cdf,5,98,7.5,5.5,42.0,5.5,2.0758280000000013
3,2,cdf,5,99,82.5,18.5,53.5,18.5,1.756669200000033
3,2,cdf,5,100,52.5,12.5,42.0,12.0,1.344272400000591
3,2,cdf,5,101,67.5,14.0,42.0,13.0,2.358054700000139
3,2,cdf,5,102,157.5,34.0,45.5,34.0,1.1320347000000766
3,2,cdf,5,103,172.5,38.5,51.5,38.5,1.3207800999998651
3,2,cdf,5,104,37.5,11.5,42.0,10.0,2.322519999999713
3,2,cdf,5,105,97.5,25.5,42.0,25.0,1.3441960999998628
3,2,cdf,5,106,30.0,11.0,42.0,11.0,1.898297900000216
3,2,cdf,5,107,45.0,12.0,42.0,10.0,1.709769299999607
3,2,cdf,5,108,112.5,30.0,42.0,28.0,2.1577245999997103
3,2,cdf,5,109,60.0,13.0,42.0,12.0,1.534545500000604
3,2,cdf,5,110,135.0,32.0,61.5,32.0,2.158701999999721
3,2,cdf,5,111,105.0,28.0,55.0,28.0,1.8631301000004896
3,2,cdf,5,112,127.5,31.5,50.0,31.0,1.6036430000003747
3,2,cdf,5,113,15.0,8.0,42.0,8.0,1.3678290999996534
3,2,cdf,5,114,75.0,16.0,42.0,14.0,1.6743355000007796
3,2,cdf,5,115,120.0,31.0,42.0,30.0,1.5562711999991734
3,2,cdf,6,116,22.5,10.0,42.0,9.5,1.747759099999712
3,2,cdf,6,117,30.0,11.0,42.0,10.0,1.1673871000002691
3,2,cdf,6,118,67.5,14.0,42.0,12.5,1.5215625999999247
3,2,cdf,6,119,90.0,22.0,42.0,22.0,1.5461113000001203
3,2,cdf,6,120,60.0,13.0,42.0,11.5,1.6979565000001458
3,2,cdf,6,121,135.0,32.0,47.5,32.0,1.9334905000005165
3,2,cdf,6,122,127.5,31.5,61.5,31.5,2.1104865999996036
3,2,cdf,6,123,165.0,36.0,42.0,35.5,1.9110962000004292
3,2,cdf,6,124,15.0,8.0,42.0,8.0,1.61557509999966
3,2,cdf,6,125,45.0,12.0,42.0,11.0,1.285081899999568
3,2,cdf,6,126,75.0,16.0,42.0,14.0,1.603624000000309
3,2,cdf,6,127,97.5,25.5,66.0,25.5,1.603783900000053
3,2,cdf,6,128,82.5,18.5,42.0,18.5,1.722660999999789
3,2,cdf,6,129,52.5,12.5,42.0,12.0,2.0398064000000886
3,2,cdf,6,130,105.0,28.0,51.0,25.0,1.3920218999992358
3,2,cdf,6,131,150.0,33.0,62.0,34.0,2.2519920000004277
3,2,cdf,6,132,37.5,11.5,42.0,10.0,1.687104999999974
3,2,cdf,6,133,112.5,30.0,42.0,28.0,1.7812971000003015
3,2,cdf,6,134,7.5,5.5,42.0,5.5,1.2145291999995609
3,2,cdf,6,135,142.5,32.5,63.0,31.5,1.7350249000000986
3,2,cdf,6,136,157.5,34.0,42.0,33.0,2.252760700000181
3,2,cdf,6,137,120.0,31.0,50.0,28.0,1.6867635000007797
3,2,cdf,6,138,172.5,38.5,76.0,38.5,1.1320670999994036
3,2,cdf,7,139,127.5,31.5,49.0,31.5,1.35607919999984
3,2,cdf,7,140,142.5,32.5,50.0,32.0,2.3579255000004196
3,2,cdf,7,141,120.0,31.0,60.0,28.0,1.3794292000002315
3,2,cdf,7,142,90.0,22.0,63.5,22.0,1.3207976000003327
3,2,cdf,7,143,22.5,10.0,42.0,8.0,1.9926987999997436
3,2,cdf,7,144,52.5,12.5,42.0,12.0,1.6271413000004031
3,2,cdf,7,145,157.5,34.0,74.5,32.5,1.980839500000002
3,2,cdf,7,146,37.5,11.5,42.0,10.0,1.7685867000000144
3,2,cdf,7,147,60.0,13.0,44.0,12.5,2.0633217999993576
3,2,cdf,7,148,135.0,32.0,42.0,32.0,1.308892800000649
3,2,cdf,7,149,7.5,5.5,42.0,5.5,1.3324291999997513
3,2,cdf,7,150,97.5,25.5,51.5,25.5,2.0160130000003846
3,2,cdf,7,151,112.5,30.0,45.0,28.0,2.4052638000002844
3,2,cdf,7,152,75.0,16.0,42.0,12.5,2.32280609999998
3,2,cdf,7,153,150.0,33.0,69.0,33.0,1.6743625999997676
3,2,cdf,7,154,172.5,38.5,50.5,38.5,1.0260247999995045
3,2,cdf,7,155,15.0,8.0,42.0,8.0,1.7241237999996883
3,2,cdf,7,156,30.0,11.0,42.0,10.0,1.5210465000000113
3,2,cdf,7,157,165.0,36.0,70.0,34.0,2.73554890000014
3,2,cdf,7,158,82.5,18.5,51.5,18.5,1.627222499999334
3,2,cdf,7,159,67.5,14.0,42.0,11.5,1.697880200000327
3,2,cdf,7,160,105.0,28.0,54.5,28.0,2.558461999999963
3,2,cdf,7,161,45.0,12.0,42.0,11.0,1.5329267999995864
3,2,cdf,8,162,90.0,22.0,43.5,22.0,1.6649360000001252
3,2,cdf,8,163,127.5,31.5,49.5,31.5,1.7927884000000631
3,2,cdf,8,164,15.0,8.0,47.0,8.0,1.9580399000005857
3,2,cdf,8,165,60.0,13.0,42.0,12.5,1.662554700000328
3,2,cdf,8,166,45.0,12.0,42.0,11.0,2.181254400000398
3,2,cdf,8,167,142.5,32.5,61.0,32.5,1.3915395000003628
3,2,cdf,8,168,165.0,36.0,42.0,36.0,1.50924810000015
3,2,cdf,8,169,105.0,28.0,50.5,25.5,1.5091087999999218
3,2,cdf,8,170,97.5,25.5,42.0,25.5,1.95725930000026
3,2,cdf,8,171,120.0,31.0,59.5,30.0,1.3330989000005502
3,2,cdf,8,172,150.0,33.0,42.0,33.0,1.7448710999997274
3,2,cdf,8,173,7.5,5.5,42.0,5.5,1.6153597000002264
3,2,cdf,8,174,67.5,14.0,42.0,13.0,2.8768119000005754
3,2,cdf,8,175,82.5,18.5,51.0,16.0,1.3090228000000934
3,2,cdf,8,176,157.5,34.0,44.5,36.0,1.7101034999996043
3,2,cdf,8,177,37.5,11.5,49.5,11.0,1.5680862999997771
3,2,cdf,8,178,75.0,16.0,42.0,13.0,1.6171926999995776
3,2,cdf,8,179,135.0,32.0,72.5,32.0,1.924184100000275
3,2,cdf,8,180,30.0,11.0,48.5,10.0,1.628606800000853
3,2,cdf,8,181,52.5,12.5,42.0,11.0,1.7214292000007845
3,2,cdf,8,182,112.5,30.0,42.0,29.5,1.9582698999993229
3,2,cdf,8,183,172.5,38.5,42.0,38.5,2.6528473999997004
3,2,cdf,8,184,22.5,10.0,42.0,8.5,1.7097587999996904
4,1,cdf,1,1,45.0,12.0,42.0,12.0,1.551500500000003
4,1,cdf,1,2,135.0,32.0,49.5,32.0,2.157635499999998
4,1,cdf,1,3,67.5,14.0,42.0,18.0,1.9926375999999948
4,1,cdf,1,4,172.5,38.5,65.0,38.5,1.734347999999983
4,1,cdf,1,5,97.5,25.5,42.0,26.5,1.7337167999999965
4,1,cdf,1,6,37.5,11.5,46.0,11.0,2.735398400000008
4,1,cdf,1,7,127.5,31.5,60.5,32.0,2.8515625
4,1,cdf,1,8,165.0,36.0,48.0,34.0,2.5149798000000345
4,1,cdf,1,9,52.5,12.5,42.0,13.0,2.217887899999994
4,1,cdf,1,10,82.5,18.5,42.0,18.5,2.1592309000000114
4,1,cdf,1,11,90.0,22.0,42.0,22.0,2.063595399999997
4,1,cdf,1,12,60.0,13.0,42.0,12.5,0.955851100000018
4,1,cdf,1,13,30.0,11.0,42.0,10.0,1.771529600000008
4,1,cdf,1,14,112.5,30.0,42.0,30.0,2.3934761000000435
4,1,cdf,1,15,105.0,28.0,50.0,30.0,2.2758432999999627
4,1,cdf,1,16,120.0,31.0,42.0,31.5,2.357924999999966
4,1,cdf,1,17,157.5,34.0,40.5,36.5,1.7566984000000048
4,1,cdf,1,18,15.0,8.0,49.5,5.0,2.54670729999998
4,1,cdf,1,19,75.0,16.0,42.0,18.5,1.957271800000001
4,1,cdf,1,20,7.5,5.5,42.0,5.5,1.3559842999999887
4,1,cdf,1,21,22.5,10.0,42.0,11.0,2.817869299999984
4,1,cdf,1,22,142.5,32.5,47.5,32.5,2.935728200000028
4,1,cdf,1,23,150.0,33.0,42.0,34.0,2.3344524999999976
4,1,cdf,2,24,150.0,33.0,42.0,33.0,2.4232983999999647
4,1,cdf,2,25,22.5,10.0,42.0,10.0,1.557609799999966
4,1,cdf,2,26,135.0,32.0,55.0,31.5,2.2645058999999605
4,1,cdf,2,27,75.0,16.0,42.0,16.0,1.6508086000000048
4,1,cdf,2,28,15.0,8.0,42.0,8.0,1.5444946000000073
4,1,cdf,2,29,90.0,22.0,42.0,22.0,1.2027738000000454
4,1,cdf,2,30,157.5,34.0,0.0,,
4,1,cdf,2,31,112.5,30.0,49.0,30.0,1.7831884999999374
4,1,cdf,2,32,30.0,11.0,42.0,11.0,1.926200200000039
4,1,cdf,2,33,37.5,11.5,50.5,12.0,2.0398117999999386
4,1,cdf,2,34,142.5,32.5,73.5,32.5,1.8995702000000847
4,1,cdf,2,35,52.5,12.5,52.0,12.5,1.615351300000043
4,1,cdf,2,36,45.0,12.0,42.0,12.0,2.0396160999999893
4,1,cdf,2,37,127.5,31.5,45.0,31.0,1.910810500000025
4,1,cdf,2,38,97.5,25.5,67.0,28.0,1.5091168000000152
4,1,cdf,2,39,120.0,31.0,55.0,31.0,2.004758299999935
4,1,cdf,2,40,60.0,13.0,42.0,14.0,2.064106899999956
4,1,cdf,2,41,172.5,38.5,68.5,38.5,1.8987838000000463
4,1,cdf,2,42,165.0,36.0,54.0,36.0,1.933865600000104
4,1,cdf,2,43,105.0,28.0,42.0,31.0,1.6627580000000537
4,1,cdf,2,44,82.5,18.5,42.0,16.5,2.3816547999999784
4,1,cdf,2,45,7.5,5.5,42.0,5.5,1.9219381999999996
4,1,cdf,2,46,67.5,14.0,50.5,13.0,1.167348000000061
4,1,cdf,3,47,142.5,32.5,55.5,32.0,1.9335108999999877
4,1,cdf,3,48,7.5,5.5,42.0,5.5,1.356019100000026
4,1,cdf,3,49,97.5,25.5,53.5,25.0,2.522955599999932
4,1,cdf,3,50,15.0,8.0,41.5,10.0,1.8393934999999144
4,1,cdf,3,51,135.0,32.0,68.0,32.0,2.418322400000079
4,1,cdf,3,52,37.5,11.5,42.0,12.0,1.8642232999998216
4,1,cdf,3,53,165.0,36.0,63.5,38.5,2.0035307999999077
4,1,cdf,3,54,45.0,12.0,42.0,12.0,1.3687330000000202
4,1,cdf,3,55,67.5,14.0,42.5,14.0,2.2641132999999627
4,1,cdf,3,56,105.0,28.0,48.5,30.0,1.0379342999999608
4,1,cdf,3,57,52.5,12.5,42.0,12.5,1.7100247999999283
4,1,cdf,3,58,112.5,30.0,57.0,31.0,2.1812629999999444
4,1,cdf,3,59,120.0,31.0,69.5,31.0,2.8532374999999774
4,1,cdf,3,60,150.0,33.0,42.0,33.0,1.3324052000000393
4,1,cdf,3,61,172.5,38.5,71.5,38.5,1.8764653999999157
4,1,cdf,3,62,30.0,11.0,51.5,10.0,1.710588899999948
4,1,cdf,3,63,157.5,34.0,42.0,34.0,2.2525341999999
4,1,cdf,3,64,60.0,13.0,44.5,14.0,1.627545199999986
4,1,cdf,3,65,82.5,18.5,42.0,16.5,1.485663100000011
4,1,cdf,3,66,22.5,10.0,48.0,10.0,2.888572300000078
4,1,cdf,3,67,75.0,16.0,42.0,16.5,2.063413500000024
4,1,cdf,3,68,127.5,31.5,57.0,31.0,1.9101290000000972
4,1,cdf,3,69,90.0,22.0,42.0,22.0,1.7805040000000645
4,1,cdf,4,70,67.5,14.0,42.0,13.0,1.949647600000162
4,1,cdf,4,71,37.5,11.5,42.0,11.5,2.551284200000054
4,1,cdf,4,72,22.5,10.0,42.0,11.0,1.2153983000000608
4,1,cdf,4,73,7.5,5.5,42.0,5.5,2.1945230999999694
4,1,cdf,4,74,120.0,31.0,50.0,31.0,1.9697254000000155
4,1,cdf,4,75,135.0,32.0,42.0,32.0,2.2759223000000475
4,1,cdf,4,76,112.5,30.0,42.0,30.0,1.9460681000000477
4,1,cdf,4,77,142.5,32.5,60.5,34.0,1.9454912999999576
4,1,cdf,4,78,105.0,28.0,43.5,30.0,1.462128200000052
4,1,cdf,4,79,157.5,34.0,43.5,36.0,2.0987068000001727
4,1,cdf,4,80,60.0,13.0,42.0,13.0,1.6625002000000677
4,1,cdf,4,81,172.5,38.5,63.0,38.5,1.6743324000001394
4,1,cdf,4,82,150.0,33.0,0.0,,
4,1,cdf,4,83,15.0,8.0,42.0,10.0,1.025959999999941
4,1,cdf,4,84,82.5,18.5,42.0,18.0,1.2970832999999402
4,1,cdf,4,85,90.0,22.0,42.0,22.0,2.176886100000047
4,1,cdf,4,86,30.0,11.0,42.0,11.5,2.159538999999995
4,1,cdf,4,87,52.5,12.5,42.0,12.5,1.4269590999999764
4,1,cdf,4,88,165.0,36.0,47.5,36.0,1.2988566999999875
4,1,cdf,4,89,97.5,25.5,65.5,25.5,1.3088769000000866
4,1,cdf,4,90,127.5,31.5,61.5,31.5,1.994249200000013
4,1,cdf,4,91,45.0,12.0,49.0,12.0,1.6861429000000498
4,1,cdf,4,92,75.0,16.0,53.5,16.0,1.2969121999999516
4,1,cdf,5,93,82.5,18.5,42.0,18.0,1.0897029999998722
4,1,cdf,5,94,97.5,25.5,67.0,25.5,2.0163602000000083
4,1,cdf,5,95,75.0,16.0,42.0,16.0,1.9101184999999532
4,1,cdf,5,96,105.0,28.0,43.0,30.0,0.9917093999999906
4,1,cdf,5,97,52.5,12.5,53.5,12.5,1.2852990999999747
4,1,cdf,5,98,30.0,11.0,42.0,11.0,1.1437744000002112
4,1,cdf,5,99,150.0,33.0,66.0,34.0,1.5092433000002077
4,1,cdf,5,100,135.0,32.0,42.0,32.0,1.8866618000001836
4,1,cdf,5,101,165.0,36.0,66.5,36.5,1.8659576000000015
4,1,cdf,5,102,22.5,10.0,42.0,10.0,1.9476742999997896
4,1,cdf,5,103,157.5,34.0,56.0,36.0,2.1577005999999983
4,1,cdf,5,104,120.0,31.0,49.0,31.0,1.8517829999998412
4,1,cdf,5,105,67.5,14.0,50.5,13.0,1.4395884000000478
4,1,cdf,5,106,112.5,30.0,42.0,31.0,2.0185782000000927
4,1,cdf,5,107,45.0,12.0,42.0,12.0,1.700266000000056
4,1,cdf,5,108,127.5,31.5,44.5,32.0,1.7333035999999993
4,1,cdf,5,109,7.5,5.5,42.0,5.5,1.827784500000007
4,1,cdf,5,110,142.5,32.5,60.5,32.5,1.345500900000161
4,1,cdf,5,111,15.0,8.0,42.0,10.0,1.6625607999999374
4,1,cdf,5,112,90.0,22.0,52.5,22.0,2.275541700000076
4,1,cdf,5,113,60.0,13.0,42.0,13.0,2.145883299999923
4,1,cdf,5,114,37.5,11.5,50.5,11.5,2.216446700000006
4,1,cdf,5,115,172.5,38.5,74.0,38.5,1.851131900000155
4,1,cdf,6,116,135.0,32.0,47.0,32.0,1.4891121999999086
4,1,cdf,6,117,165.0,36.0,58.0,36.0,1.274287700000059
4,1,cdf,6,118,37.5,11.5,42.0,11.5,1.5232677000001331
4,1,cdf,6,119,127.5,31.5,68.5,31.0,2.2285194999999476
4,1,cdf,6,120,52.5,12.5,48.5,13.0,1.6152098000000024
4,1,cdf,6,121,97.5,25.5,64.5,25.5,1.5095132000001286
4,1,cdf,6,122,15.0,8.0,42.0,8.0,1.391345900000033
4,1,cdf,6,123,75.0,16.0,42.0,16.0,2.00442750000002
4,1,cdf,6,124,67.5,14.0,42.0,14.5,2.004605399999946
4,1,cdf,6,125,172.5,38.5,57.0,38.5,2.0513983999999255
4,1,cdf,6,126,7.5,5.5,42.0,5.5,1.5577195000000756
4,1,cdf,6,127,82.5,18.5,43.0,18.0,1.7463668000000323
4,1,cdf,6,128,22.5,10.0,42.0,10.0,1.8637558999998871
4,1,cdf,6,129,45.0,12.0,42.0,12.0,1.9108530000003157
4,1,cdf,6,130,120.0,31.0,42.0,31.0,1.9818436000000472
4,1,cdf,6,131,60.0,13.0,42.0,13.0,2.499508699999751
4,1,cdf,6,132,105.0,28.0,42.0,30.0,2.157692700000098
4,1,cdf,6,133,142.5,32.5,72.5,34.0,1.969459299999926
4,1,cdf,6,134,150.0,33.0,42.0,34.0,1.2499299999999494
4,1,cdf,6,135,112.5,30.0,42.0,31.0,1.968877000000248
4,1,cdf,6,136,157.5,34.0,74.0,36.0,1.627007099999901
4,1,cdf,6,137,90.0,22.0,59.0,22.0,1.1203072000002976
4,1,cdf,6,138,30.0,11.0,49.0,11.0,1.9337006999999176
4,1,cdf,7,139,67.5,14.0,42.0,14.0,1.3558701000001747
4,1,cdf,7,140,142.5,32.5,57.0,32.0,1.6625512000000526
4,1,cdf,7,141,37.5,11.5,42.0,11.0,1.756844099999853
4,1,cdf,7,142,165.0,36.0,45.5,36.0,1.650760099999843
4,1,cdf,7,143,97.5,25.5,58.0,25.5,1.709707299999991
4,1,cdf,7,144,127.5,31.5,49.0,31.0,1.0967077000000245
4,1,cdf,7,145,30.0,11.0,46.0,11.5,1.2263173000001188
4,1,cdf,7,146,120.0,31.0,42.0,31.5,1.733717600000091
4,1,cdf,7,147,75.0,16.0,42.0,18.0,0.978743900000154
4,1,cdf,7,148,15.0,8.0,42.0,8.0,2.0868662000002587
4,1,cdf,7,149,7.5,5.5,42.0,5.5,2.0286995999999817
4,1,cdf,7,150,105.0,28.0,42.0,30.0,2.051996899999722
4,1,cdf,7,151,135.0,32.0,43.0,32.0,2.4054219999998168
4,1,cdf,7,152,52.5,12.5,42.0,12.5,1.603826200000185
4,1,cdf,7,153,45.0,12.0,50.0,12.0,2.051715300000069
4,1,cdf,7,154,22.5,10.0,42.0,10.5,2.4417026999999507
4,1,cdf,7,155,112.5,30.0,66.0,31.0,1.9843167000003632
4,1,cdf,7,156,150.0,33.0,65.5,34.0,1.7097398000000794
4,1,cdf,7,157,60.0,13.0,42.0,14.0,1.9336950000001707
4,1,cdf,7,158,172.5,38.5,78.0,38.5,1.6153481999999713
4,1,cdf,7,159,157.5,34.0,46.0,36.0,1.9808428999999703
4,1,cdf,7,160,82.5,18.5,43.5,18.0,1.3680715999998938
4,1,cdf,7,161,90.0,22.0,47.5,22.0,1.6743031000000883
4,1,cdf,8,162,172.5,38.5,64.5,38.5,1.8455761999998683
4,1,cdf,8,163,142.5,32.5,42.0,32.0,1.770016900000428
4,1,cdf,8,164,105.0,28.0,42.0,29.5,2.50113760000022
4,1,cdf,8,165,60.0,13.0,48.5,12.5,1.781120900000133
4,1,cdf,8,166,67.5,14.0,53.0,13.0,2.064810200000011
4,1,cdf,8,167,7.5,5.5,42.0,5.5,1.83937909999986
4,1,cdf,8,168,127.5,31.5,42.0,32.0,1.8827421999999387
4,1,cdf,8,169,15.0,8.0,42.0,10.0,2.078105399999913
4,1,cdf,8,170,150.0,33.0,42.0,34.0,1.9813545000001795
4,1,cdf,8,171,52.5,12.5,53.0,12.5,1.4031608000000233
4,1,cdf,8,172,82.5,18.5,42.0,18.0,1.3920164999999542
4,1,cdf,8,173,90.0,22.0,42.0,22.0,1.6161729999998895
4,1,cdf,8,174,22.5,10.0,42.0,10.0,1.4865233999998964
4,1,cdf,8,175,165.0,36.0,42.5,36.0,1.6763420000002045
4,1,cdf,8,176,30.0,11.0,42.0,11.5,1.3794297000004008
4,1,cdf,8,177,112.5,30.0,63.5,31.0,1.8279882000001637
4,1,cdf,8,178,97.5,25.5,42.0,25.5,1.6631183000004055
4,1,cdf,8,179,45.0,12.0,52.5,12.0,2.573622500000056
4,1,cdf,8,180,75.0,16.0,42.0,18.0,1.4643810000002304
4,1,cdf,8,181,157.5,34.0,58.5,36.0,1.7726603999999495
4,1,cdf,8,182,135.0,32.0,42.0,32.0,2.146809999999732
4,1,cdf,8,183,37.5,11.5,42.0,12.0,1.487055600000076
4,1,cdf,8,184,120.0,31.0,57.5,31.0,1.745824800000264
4,2,inverse_cdf,1,1,112.5,24.0,0.0,,
4,2,inverse_cdf,1,2,67.5,20.0,42.0,19.5,1.709667999999965
4,2,inverse_cdf,1,3,172.5,41.5,74.5,41.0,2.7589065000001938
4,2,inverse_cdf,1,4,7.5,2.5,42.0,2.5,1.2034730999998828
4,2,inverse_cdf,1,5,105.0,23.0,42.0,24.0,1.4147947999999817
4,2,inverse_cdf,1,6,37.5,7.5,43.5,11.5,2.0987796999997954
4,2,inverse_cdf,1,7,52.5,16.0,42.0,16.0,2.850468799999817
4,2,inverse_cdf,1,8,150.0,39.0,75.0,40.0,1.6034202000000732
4,2,inverse_cdf,1,9,30.0,5.0,42.0,4.0,1.5091057999998156
4,2,inverse_cdf,1,10,157.5,40.0,47.5,41.0,1.3678560000003015
4,2,inverse_cdf,1,11,90.0,22.0,56.5,22.0,1.7920373000001746
4,2,inverse_cdf,1,12,120.0,25.5,56.5,28.0,2.334728599999835
4,2,inverse_cdf,1,13,15.0,3.0,42.0,3.0,1.3114074999998593
4,2,inverse_cdf,1,14,165.0,41.0,55.5,41.0,1.2026265999998031
4,2,inverse_cdf,1,15,22.5,4.0,42.0,5.0,1.9218705000002956
4,2,inverse_cdf,1,16,127.5,28.0,42.0,28.0,2.1231496999998853
4,2,inverse_cdf,1,17,97.5,22.5,50.5,22.5,1.5588459000000512
4,2,inverse_cdf,1,18,142.5,36.5,42.5,39.0,1.3715541999999914
4,2,inverse_cdf,1,19,60.0,18.5,59.5,17.0,2.841457999999875
4,2,inverse_cdf,1,20,45.0,11.5,44.5,11.5,2.0400206999997863
4,2,inverse_cdf,1,21,135.0,32.5,72.0,32.5,1.1817898999997851
4,2,inverse_cdf,1,22,82.5,21.5,53.0,21.5,1.8864668999999592
4,2,inverse_cdf,1,23,75.0,21.0,57.5,21.0,1.957219200000054
4,2,inverse_cdf,2,24,157.5,40.0,42.0,39.0,0.9316691999997602
4,2,inverse_cdf,2,25,127.5,28.0,50.0,32.5,1.8167962000002265
4,2,inverse_cdf,2,26,52.5,16.0,42.0,16.5,2.640886600000158
4,2,inverse_cdf,2,27,90.0,22.0,42.0,22.0,2.0633374999997613
4,2,inverse_cdf,2,28,22.5,4.0,42.0,4.0,1.9688731999999616
4,2,inverse_cdf,2,29,105.0,23.0,58.0,23.0,1.9099340000002485
4,2,inverse_cdf,2,30,30.0,5.0,42.0,5.0,2.5230329999994865
4,2,inverse_cdf,2,31,60.0,18.5,52.0,18.5,1.2161615999993955
4,2,inverse_cdf,2,32,97.5,22.5,42.0,23.0,0.9787605999999868
4,2,inverse_cdf,2,33,15.0,3.0,42.0,3.0,1.346352300000035
4,2,inverse_cdf,2,34,37.5,7.5,42.0,8.5,2.617443199999798
4,2,inverse_cdf,2,35,112.5,24.0,62.5,25.5,1.8754310000003895
4,2,inverse_cdf,2,36,142.5,36.5,47.5,36.5,1.368974399999388
4,2,inverse_cdf,2,37,67.5,20.0,60.0,20.0,1.5326912000000448
4,2,inverse_cdf,2,38,45.0,11.5,42.0,11.5,1.534128100000089
4,2,inverse_cdf,2,39,172.5,41.5,52.5,41.5,2.230101099999956
4,2,inverse_cdf,2,40,165.0,41.0,68.5,41.0,1.4081540999995923
4,2,inverse_cdf,2,41,120.0,25.5,46.0,28.5,2.6882005000006757
4,2,inverse_cdf,2,42,150.0,39.0,67.0,39.0,0.8962693000003128
4,2,inverse_cdf,2,43,7.5,2.5,42.0,2.5,0.8614761999997427
4,2,inverse_cdf,2,44,75.0,21.0,42.0,21.0,1.7337076000003435
4,2,inverse_cdf,2,45,82.5,21.5,63.0,21.5,2.641017200000533
4,2,inverse_cdf,2,46,135.0,32.5,64.0,32.5,1.839335900000151
4,2,inverse_cdf,3,47,97.5,22.5,54.0,22.5,1.7129806000002643
4,2,inverse_cdf,3,48,30.0,5.0,42.0,5.0,2.098772100000133
4,2,inverse_cdf,3,49,60.0,18.5,42.0,18.5,2.2284318000001804
4,2,inverse_cdf,3,50,22.5,4.0,42.0,5.0,2.334652100000312
4,2,inverse_cdf,3,51,67.5,20.0,42.0,18.5,1.1084429000002274
4,2,inverse_cdf,3,52,112.5,24.0,53.5,28.0,1.8632148000006057
4,2,inverse_cdf,3,53,150.0,39.0,65.0,40.0,1.8514508999996904
4,2,inverse_cdf,3,54,7.5,2.5,42.0,2.5,1.733314000000064
4,2,inverse_cdf,3,55,90.0,22.0,49.0,21.5,1.8158077000007324
4,2,inverse_cdf,3,56,165.0,41.0,78.0,41.0,1.2263707000001889
4,2,inverse_cdf,3,57,45.0,11.5,49.0,11.5,1.7697367000000668
4,2,inverse_cdf,3,58,52.5,16.0,42.0,16.5,1.9816617999995287
4,2,inverse_cdf,3,59,37.5,7.5,42.0,7.0,2.287190600000031
4,2,inverse_cdf,3,60,142.5,36.5,42.0,36.5,2.122303300000567
4,2,inverse_cdf,3,61,135.0,32.5,69.5,28.5,2.086967000000186
4,2,inverse_cdf,3,62,127.5,28.0,42.0,28.5,1.4644023000000743
4,2,inverse_cdf,3,63,75.0,21.0,57.0,21.0,1.686500800000431
4,2,inverse_cdf,3,64,172.5,41.5,58.5,41.5,2.1115698999992674
4,2,inverse_cdf,3,65,82.5,21.5,42.0,21.0,1.5213432999998986
4,2,inverse_cdf,3,66,157.5,40.0,68.5,40.0,0.8726303999992524
4,2,inverse_cdf,3,67,15.0,3.0,42.0,3.0,1.3089694000000236
4,2,inverse_cdf,3,68,120.0,25.5,47.5,25.5,2.253237999999328
4,2,inverse_cdf,3,69,105.0,23.0,42.0,24.0,1.8275899000000209
4,2,inverse_cdf,4,70,172.5,41.5,76.5,41.5,1.7612561999994796
4,2,inverse_cdf,4,71,45.0,11.5,42.0,11.5,1.899783699999716
4,2,inverse_cdf,4,72,82.5,21.5,49.5,21.5,2.0055214000003616
4,2,inverse_cdf,4,73,120.0,25.5,48.0,25.5,1.9103690000001736
4,2,inverse_cdf,4,74,52.5,16.0,42.0,16.5,1.4759024999993926
4,2,inverse_cdf,4,75,7.5,2.5,42.0,2.5,1.4633176999996067
4,2,inverse_cdf,4,76,15.0,3.0,42.0,3.0,1.9102534000003288
4,2,inverse_cdf,4,77,157.5,40.0,65.0,41.0,1.5231278000001112
4,2,inverse_cdf,4,78,105.0,23.0,58.0,23.0,1.556894199999988
4,2,inverse_cdf,4,79,127.5,28.0,42.0,28.0,1.5593871000000945
4,2,inverse_cdf,4,80,112.5,24.0,42.0,25.5,2.0758475000002363
4,2,inverse_cdf,4,81,165.0,41.0,70.0,41.5,1.3216183000004094
4,2,inverse_cdf,4,82,135.0,32.5,72.0,32.5,1.4270757000003869
4,2,inverse_cdf,4,83,142.5,36.5,0.0,,
4,2,inverse_cdf,4,84,30.0,5.0,42.0,7.5,1.262757400000737
4,2,inverse_cdf,4,85,90.0,22.0,48.0,22.0,1.4739270999998553
4,2,inverse_cdf,4,86,22.5,4.0,42.0,4.0,1.1322325000001
4,2,inverse_cdf,4,87,97.5,22.5,50.0,23.0,1.3112065000004804
4,2,inverse_cdf,4,88,150.0,39.0,63.0,40.0,1.0078594999995405
4,2,inverse_cdf,4,89,75.0,21.0,60.0,18.0,1.7704610000000685
4,2,inverse_cdf,4,90,37.5,7.5,42.0,11.0,1.6861447999999657
4,2,inverse_cdf,4,91,60.0,18.5,42.0,16.5,1.5801808000005622
4,2,inverse_cdf,4,92,67.5,20.0,42.0,18.0,1.6157472999993845
4,2,inverse_cdf,5,93,67.5,20.0,46.0,18.0,1.736900400000195
4,2,inverse_cdf,5,94,150.0,39.0,70.5,40.0,1.2970448999994917
4,2,inverse_cdf,5,95,60.0,18.5,42.0,16.0,2.251928699999553
4,2,inverse_cdf,5,96,52.5,16.0,42.0,11.5,1.414956799999345
4,2,inverse_cdf,5,97,97.5,22.5,42.0,22.5,0.7781850999999733
4,2,inverse_cdf,5,98,7.5,2.5,43.5,2.5,1.544508599999972
4,2,inverse_cdf,5,99,22.5,4.0,42.0,4.0,1.5448146999997334
4,2,inverse_cdf,5,100,127.5,28.0,48.0,28.0,2.6591087000006155
4,2,inverse_cdf,5,101,82.5,21.5,42.0,22.0,1.9926838000001224
4,2,inverse_cdf,5,102,30.0,5.0,42.0,7.5,1.299025100000108
4,2,inverse_cdf,5,103,45.0,11.5,42.0,11.5,1.9688736999996763
4,2,inverse_cdf,5,104,90.0,22.0,62.0,22.0,2.145914400000038
4,2,inverse_cdf,5,105,120.0,25.5,59.5,25.0,2.6529688999999053
4,2,inverse_cdf,5,106,165.0,41.0,59.5,41.0,1.0631069999999454
4,2,inverse_cdf,5,107,112.5,24.0,42.0,24.0,2.1692938000005597
4,2,inverse_cdf,5,108,37.5,7.5,43.5,11.5,1.7807193999997253
4,2,inverse_cdf,5,109,157.5,40.0,56.5,42.0,2.099179099999674
4,2,inverse_cdf,5,110,105.0,23.0,47.5,23.0,1.345121599999402
4,2,inverse_cdf,5,111,135.0,32.5,64.0,28.5,2.3699321000003692
4,2,inverse_cdf,5,112,142.5,36.5,42.0,32.5,2.464136200000212
4,2,inverse_cdf,5,113,75.0,21.0,53.5,21.0,1.5212389999996958
4,2,inverse_cdf,5,114,15.0,3.0,42.0,3.0,1.8276053999998112
4,2,inverse_cdf,5,115,172.5,41.5,43.0,41.5,2.0987452999997913
4,2,inverse_cdf,6,116,30.0,5.0,42.0,7.5,2.0886297999995804
4,2,inverse_cdf,6,117,105.0,23.0,42.0,23.0,2.3462566999996852
4,2,inverse_cdf,6,118,112.5,24.0,42.0,24.0,2.01725019999958
4,2,inverse_cdf,6,119,67.5,20.0,42.0,18.0,1.7820625999993354
4,2,inverse_cdf,6,120,150.0,39.0,69.5,40.0,2.074978999999985
4,2,inverse_cdf,6,121,75.0,21.0,42.0,21.0,1.9810023
4,2,inverse_cdf,6,122,120.0,25.5,0.0,,
4,2,inverse_cdf,6,123,135.0,32.5,42.0,32.5,1.70979509999961
4,2,inverse_cdf,6,124,37.5,7.5,42.0,7.5,1.8878316000000268
4,2,inverse_cdf,6,125,90.0,22.0,42.0,22.0,1.7568246999999246
4,2,inverse_cdf,6,126,60.0,18.5,59.5,17.5,2.157648500000505
4,2,inverse_cdf,6,127,127.5,28.0,68.0,28.5,1.721494899999925
4,2,inverse_cdf,6,128,97.5,22.5,42.0,23.0,2.464193499999965
4,2,inverse_cdf,6,129,165.0,41.0,78.0,41.0,2.2520552999994834
4,2,inverse_cdf,6,130,7.5,2.5,42.0,1.5,2.80755980000049
4,2,inverse_cdf,6,131,172.5,41.5,70.0,41.5,1.9709007999999812
4,2,inverse_cdf,6,132,15.0,3.0,42.0,4.0,1.3920162000003984
4,2,inverse_cdf,6,133,45.0,11.5,42.0,11.5,2.1587483000002976
4,2,inverse_cdf,6,134,52.5,16.0,49.0,16.5,2.2761663999999655
4,2,inverse_cdf,6,135,157.5,40.0,59.0,41.0,1.498411800000213
4,2,inverse_cdf,6,136,22.5,4.0,42.0,5.0,1.7584698000000571
4,2,inverse_cdf,6,137,142.5,36.5,70.0,32.5,1.6271804999996675
4,2,inverse_cdf,6,138,82.5,21.5,42.5,21.5,1.5335207000007358
4,2,inverse_cdf,7,139,52.5,16.0,42.0,16.5,2.0061257000006663
4,2,inverse_cdf,7,140,112.5,24.0,42.0,24.0,1.6507612000004883
4,2,inverse_cdf,7,141,37.5,7.5,47.0,7.5,2.216651800000363
4,2,inverse_cdf,7,142,30.0,5.0,42.0,5.0,1.4986933999998655
4,2,inverse_cdf,7,143,142.5,36.5,50.0,36.5,1.9815977999996903
4,2,inverse_cdf,7,144,172.5,41.5,67.0,41.5,2.5702597999998034
4,2,inverse_cdf,7,145,60.0,18.5,42.0,17.5,1.7416736000004676
4,2,inverse_cdf,7,146,90.0,22.0,42.0,22.0,1.0375459999995655
4,2,inverse_cdf,7,147,67.5,20.0,42.0,18.0,2.405268100000285
4,2,inverse_cdf,7,148,97.5,22.5,42.5,23.0,1.603576599999542
4,2,inverse_cdf,7,149,150.0,39.0,49.5,40.0,1.367805500000031
4,2,inverse_cdf,7,150,120.0,25.5,47.5,28.0,1.4396085999997013
4,2,inverse_cdf,7,151,82.5,21.5,43.5,21.5,2.2638331000007383
4,2,inverse_cdf,7,152,75.0,21.0,42.0,21.0,2.0160408000001553
4,2,inverse_cdf,7,153,165.0,41.0,57.5,41.0,1.3324651000002632
4,2,inverse_cdf,7,154,135.0,32.5,42.0,32.5,1.2853934999993726
4,2,inverse_cdf,7,155,127.5,28.0,42.0,32.5,2.1051698999999644
4,2,inverse_cdf,7,156,15.0,3.0,42.0,3.5,2.2755808000001707
4,2,inverse_cdf,7,157,157.5,40.0,58.0,40.5,2.1221514999997453
4,2,inverse_cdf,7,158,7.5,2.5,42.0,2.5,2.110373999999865
4,2,inverse_cdf,7,159,22.5,4.0,42.0,5.0,2.004692800000157
4,2,inverse_cdf,7,160,45.0,11.5,42.0,16.5,1.8278108999993492
4,2,inverse_cdf,7,161,105.0,23.0,50.0,24.0,2.1961509999991904
4,2,inverse_cdf,8,162,75.0,21.0,42.0,21.0,1.7133637000006274
4,2,inverse_cdf,8,163,120.0,25.5,42.0,28.5,1.3913800999998784
4,2,inverse_cdf,8,164,22.5,4.0,42.0,4.0,1.7227125999997952
4,2,inverse_cdf,8,165,142.5,36.5,62.0,36.5,1.2380941000001258
4,2,inverse_cdf,8,166,165.0,41.0,72.0,41.0,1.6861343000000488
4,2,inverse_cdf,8,167,30.0,5.0,42.0,8.0,2.841271700000106
4,2,inverse_cdf,8,168,105.0,23.0,42.0,24.0,1.874749100000372
4,2,inverse_cdf,8,169,37.5,7.5,42.0,11.5,1.8276644000006856
4,2,inverse_cdf,8,170,172.5,41.5,53.5,41.5,1.851142499999696
4,2,inverse_cdf,8,171,60.0,18.5,42.0,18.0,2.783496899999591
4,2,inverse_cdf,8,172,15.0,3.0,42.0,4.0,2.240174499999739
4,2,inverse_cdf,8,173,82.5,21.5,49.5,21.5,2.3934285999994245
4,2,inverse_cdf,8,174,150.0,39.0,43.5,39.0,1.663263299999926
4,2,inverse_cdf,8,175,90.0,22.0,42.0,22.0,1.190966199999821
4,2,inverse_cdf,8,176,52.5,16.0,42.0,11.5,1.9690423000001829
4,2,inverse_cdf,8,177,45.0,11.5,42.0,11.5,1.5455031999999846
4,2,inverse_cdf,8,178,112.5,24.0,0.0,,
4,2,inverse_cdf,8,179,7.5,2.5,42.0,2.5,1.9935227999994825
4,2,inverse_cdf,8,180,127.5,28.0,67.5,32.5,1.969366400000581
4,2,inverse_cdf,8,181,157.5,40.0,70.5,41.0,1.556831400000192
4,2,inverse_cdf,8,182,97.5,22.5,46.0,23.0,1.69791400000031
4,2,inverse_cdf,8,183,135.0,32.5,49.0,32.5,1.7330936999996993
4,2,inverse_cdf,8,184,67.5,20.0,45.5,20.0,1.2619613999995636
5,1,inverse_cdf,1,1,15.0,3.0,0.0,,
5,1,inverse_cdf,1,2,97.5,22.5,42.0,16.5,0.3417430000000081
5,1,inverse_cdf,1,3,7.5,2.5,0.0,,
5,1,inverse_cdf,1,4,75.0,21.0,57.5,20.0,1.3100940999999864
5,1,inverse_cdf,1,5,112.5,24.0,48.5,28.5,2.3826443000000097
5,1,inverse_cdf,1,6,37.5,7.5,42.0,7.5,2.5587115000000153
5,1,inverse_cdf,1,7,157.5,40.0,63.5,36.0,1.2262197999999955
5,1,inverse_cdf,1,8,60.0,18.5,42.0,11.5,2.6408573999999874
5,1,inverse_cdf,1,9,67.5,20.0,0.0,,
5,1,inverse_cdf,1,10,172.5,41.5,44.5,40.0,1.9576189
5,1,inverse_cdf,1,11,142.5,36.5,42.0,35.5,2.464132400000011
5,1,inverse_cdf,1,12,150.0,39.0,0.0,,
5,1,inverse_cdf,1,13,82.5,21.5,49.0,21.5,1.6508327999999892
5,1,inverse_cdf,1,14,52.5,16.0,42.0,16.0,1.6635013999999728
5,1,inverse_cdf,1,15,45.0,11.5,0.0,,
5,1,inverse_cdf,1,16,135.0,32.5,60.0,27.5,2.489813599999991
5,1,inverse_cdf,1,17,90.0,22.0,42.0,22.0,2.13713580000001
5,1,inverse_cdf,1,18,165.0,41.0,50.0,40.0,1.9806965999999877
5,1,inverse_cdf,1,19,22.5,4.0,42.0,4.0,1.214385400000026
5,1,inverse_cdf,1,20,120.0,25.5,57.5,28.5,2.240020099999981
5,1,inverse_cdf,1,21,105.0,23.0,42.0,24.0,1.827597400000002
5,1,inverse_cdf,1,22,127.5,28.0,69.5,26.5,2.6410313999999744
5,1,inverse_cdf,1,23,30.0,5.0,42.0,7.5,1.697725099999957
5,1,inverse_cdf,2,24,157.5,40.0,0.0,,
5,1,inverse_cdf,2,25,15.0,3.0,42.0,5.5,2.110570799999948
5,1,inverse_cdf,2,26,165.0,41.0,67.5,36.0,1.6035689999999931
5,1,inverse_cdf,2,27,127.5,28.0,0.0,,
5,1,inverse_cdf,2,28,172.5,41.5,68.0,39.0,1.391463600000009
5,1,inverse_cdf,2,29,60.0,18.5,45.0,20.0,1.8275886000000128
5,1,inverse_cdf,2,30,90.0,22.0,42.0,22.0,1.9663112999999155
5,1,inverse_cdf,2,31,142.5,36.5,0.0,,
5,1,inverse_cdf,2,32,7.5,2.5,42.0,5.0,1.62784350000004
5,1,inverse_cdf,2,33,120.0,25.5,52.5,24.5,2.2991274000000885
5,1,inverse_cdf,2,34,45.0,11.5,42.0,11.0,1.8746991000000437
5,1,inverse_cdf,2,35,135.0,32.5,42.0,30.0,2.2991200000000163
5,1,inverse_cdf,2,36,22.5,4.0,42.0,7.5,1.4504826999999525
5,1,inverse_cdf,2,37,30.0,5.0,42.0,11.5,1.7572010999999748
5,1,inverse_cdf,2,38,97.5,22.5,63.0,23.0,2.3589852000000064
5,1,inverse_cdf,2,39,105.0,23.0,44.5,23.0,2.563049699999965
5,1,inverse_cdf,2,40,52.5,16.0,42.0,16.0,2.0424737000000732
5,1,inverse_cdf,2,41,150.0,39.0,78.0,36.0,2.452381800000012
5,1,inverse_cdf,2,42,112.5,24.0,42.0,25.0,2.228451899999982
5,1,inverse_cdf,2,43,37.5,7.5,42.0,11.5,1.792238700000098
5,1,inverse_cdf,2,44,67.5,20.0,42.0,20.0,2.688108100000022
5,1,inverse_cdf,2,45,82.5,21.5,60.0,21.5,2.2519823000000088
5,1,inverse_cdf,2,46,75.0,21.0,63.0,20.0,1.803834800000004
5,1,inverse_cdf,3,47,15.0,3.0,42.0,7.5,2.0987127000000783
5,1,inverse_cdf,3,48,37.5,7.5,42.0,11.5,1.9938730999999736
5,1,inverse_cdf,3,49,120.0,25.5,45.0,25.5,2.0280824999999822
5,1,inverse_cdf,3,50,135.0,32.5,46.0,33.0,2.558465200000001
5,1,inverse_cdf,3,51,75.0,21.0,42.0,20.0,2.063362600000005
5,1,inverse_cdf,3,52,105.0,23.0,43.0,23.0,2.1458589000000075
5,1,inverse_cdf,3,53,157.5,40.0,73.5,40.0,2.039852699999983
5,1,inverse_cdf,3,54,45.0,11.5,42.0,18.0,2.440576999999962
5,1,inverse_cdf,3,55,150.0,39.0,70.0,38.0,2.440743999999995
5,1,inverse_cdf,3,56,142.5,36.5,63.5,35.0,2.440627500000005
5,1,inverse_cdf,3,57,90.0,22.0,42.0,22.0,2.3697045000000116
5,1,inverse_cdf,3,58,82.5,21.5,42.0,21.5,2.1814108000000942
5,1,inverse_cdf,3,59,7.5,2.5,42.0,2.5,1.603531299999986
5,1,inverse_cdf,3,60,52.5,16.0,0.0,,
5,1,inverse_cdf,3,61,67.5,20.0,50.5,20.0,2.606139399999961
5,1,inverse_cdf,3,62,30.0,5.0,42.0,11.5,1.8632422000000588
5,1,inverse_cdf,3,63,22.5,4.0,42.0,5.0,2.36984659999996
5,1,inverse_cdf,3,64,172.5,41.5,42.0,41.0,1.9926351999999952
5,1,inverse_cdf,3,65,165.0,41.0,42.0,40.0,2.829658600000016
5,1,inverse_cdf,3,66,97.5,22.5,60.5,23.5,2.947591500000044
5,1,inverse_cdf,3,67,112.5,24.0,42.0,23.0,1.898279900000034
5,1,inverse_cdf,3,68,60.0,18.5,44.0,20.0,2.181912300000022
5,1,inverse_cdf,3,69,127.5,28.0,59.5,25.0,2.5465523000000303
5,1,inverse_cdf,4,70,22.5,4.0,45.5,7.5,2.4670571999999993
5,1,inverse_cdf,4,71,112.5,24.0,44.0,25.0,1.6038259000001744
5,1,inverse_cdf,4,72,75.0,21.0,42.0,20.0,2.22826299999997
5,1,inverse_cdf,4,73,120.0,25.5,42.0,25.5,2.487592199999881
5,1,inverse_cdf,4,74,127.5,28.0,42.0,28.0,2.5818651000001864
5,1,inverse_cdf,4,75,105.0,23.0,47.5,23.0,2.546671999999944
5,1,inverse_cdf,4,76,150.0,39.0,0.0,,
5,1,inverse_cdf,4,77,45.0,11.5,49.5,16.0,2.181070500000033
5,1,inverse_cdf,4,78,67.5,20.0,49.0,20.0,2.310894999999846
5,1,inverse_cdf,4,79,90.0,22.0,42.0,22.0,1.8157705999999507
5,1,inverse_cdf,4,80,157.5,40.0,79.0,40.0,2.2284607999999935
5,1,inverse_cdf,4,81,52.5,16.0,42.0,18.0,1.7334210000001349
5,1,inverse_cdf,4,82,142.5,36.5,54.0,35.0,2.7000150000001213
5,1,inverse_cdf,4,83,135.0,32.5,73.0,32.5,2.534912200000008
5,1,inverse_cdf,4,84,82.5,21.5,44.5,21.5,1.6433508999998594
5,1,inverse_cdf,4,85,37.5,7.5,42.0,11.0,2.0900808999999754
5,1,inverse_cdf,4,86,165.0,41.0,78.0,41.0,2.0407990999999583
5,1,inverse_cdf,4,87,172.5,41.5,72.5,42.0,2.087251199999855
5,1,inverse_cdf,4,88,15.0,3.0,42.0,2.5,2.3823606999999356
5,1,inverse_cdf,4,89,7.5,2.5,42.0,2.5,2.416995000000042
5,1,inverse_cdf,4,90,97.5,22.5,42.0,22.5,1.7684661000000688
5,1,inverse_cdf,4,91,30.0,5.0,42.0,7.5,2.311077399999931
5,1,inverse_cdf,4,92,60.0,18.5,53.0,16.0,2.640856800000165
5,1,inverse_cdf,5,93,67.5,20.0,43.0,24.5,2.291529399999945
5,1,inverse_cdf,5,94,105.0,23.0,42.0,23.0,2.431011699999999
5,1,inverse_cdf,5,95,15.0,3.0,42.0,2.5,2.3344736999999895
5,1,inverse_cdf,5,96,165.0,41.0,58.5,41.0,2.4407684000000245
5,1,inverse_cdf,5,97,60.0,18.5,52.0,20.0,2.322822899999892
5,1,inverse_cdf,5,98,45.0,11.5,51.5,16.0,2.2166228000000956
5,1,inverse_cdf,5,99,142.5,36.5,42.0,36.0,2.0044443000001593
5,1,inverse_cdf,5,100,157.5,40.0,42.0,36.5,2.1459100000001854
5,1,inverse_cdf,5,101,52.5,16.0,42.0,16.5,2.1695168999999623
5,1,inverse_cdf,5,102,120.0,25.5,42.0,25.5,2.2283947999999327
5,1,inverse_cdf,5,103,82.5,21.5,42.0,21.5,2.0398514000000887
5,1,inverse_cdf,5,104,37.5,7.5,42.0,5.0,2.8650076999999783
5,1,inverse_cdf,5,105,135.0,32.5,42.0,35.0,2.1694734000000153
5,1,inverse_cdf,5,106,90.0,22.0,42.0,22.0,2.19291730000009
5,1,inverse_cdf,5,107,97.5,22.5,60.0,22.5,2.1692895999999564
5,1,inverse_cdf,5,108,172.5,41.5,67.0,41.5,1.7215346999998928
5,1,inverse_cdf,5,109,112.5,24.0,51.0,25.0,2.2871737999998913
5,1,inverse_cdf,5,110,30.0,5.0,42.0,11.0,2.535068500000079
5,1,inverse_cdf,5,111,150.0,39.0,42.0,38.0,2.0042526000002
5,1,inverse_cdf,5,112,7.5,2.5,42.0,3.0,2.216602599999987
5,1,inverse_cdf,5,113,127.5,28.0,49.5,25.0,2.2871822000001885
5,1,inverse_cdf,5,114,75.0,21.0,42.0,20.5,2.381810600000108
5,1,inverse_cdf,5,115,22.5,4.0,42.0,5.0,2.593880399999989
5,1,inverse_cdf,6,116,120.0,25.5,42.0,25.5,2.6418206000000737
5,1,inverse_cdf,6,117,37.5,7.5,44.0,11.5,2.3344878000000335
5,1,inverse_cdf,6,118,157.5,40.0,47.5,38.5,1.9572520000001532
5,1,inverse_cdf,6,119,7.5,2.5,42.0,2.5,1.3795799999998053
5,1,inverse_cdf,6,120,22.5,4.0,42.0,5.0,2.2755813000001126
5,1,inverse_cdf,6,121,142.5,36.5,72.0,36.0,2.098546899999974
5,1,inverse_cdf,6,122,90.0,22.0,58.0,22.0,2.257435199999918
5,1,inverse_cdf,6,123,105.0,23.0,42.0,22.5,2.2050142000000506
5,1,inverse_cdf,6,124,127.5,28.0,55.0,25.0,1.9690775999999912
5,1,inverse_cdf,6,125,172.5,41.5,76.0,41.5,1.7806166000000303
5,1,inverse_cdf,6,126,135.0,32.5,42.0,35.0,1.992473000000018
5,1,inverse_cdf,6,127,82.5,21.5,47.5,21.5,1.8158204000001208
5,1,inverse_cdf,6,128,67.5,20.0,0.0,,
5,1,inverse_cdf,6,129,97.5,22.5,61.5,22.5,2.417011400000092
5,1,inverse_cdf,6,130,75.0,21.0,45.5,21.0,2.0633711999998923
5,1,inverse_cdf,6,131,60.0,18.5,42.0,20.5,2.0639198999999735
5,1,inverse_cdf,6,132,15.0,3.0,42.0,4.0,2.146260600000005
5,1,inverse_cdf,6,133,112.5,24.0,54.5,25.0,2.9831410000001597
5,1,inverse_cdf,6,134,45.0,11.5,42.0,11.5,2.9592710000001716
5,1,inverse_cdf,6,135,30.0,5.0,42.0,7.5,2.3460918000000675
5,1,inverse_cdf,6,136,165.0,41.0,51.5,39.0,1.945348999999851
5,1,inverse_cdf,6,137,52.5,16.0,42.0,16.0,1.8747525000001133
5,1,inverse_cdf,6,138,150.0,39.0,78.5,35.0,2.428775099999939
5,1,inverse_cdf,7,139,172.5,41.5,51.0,40.0,2.1393020000000433
5,1,inverse_cdf,7,140,37.5,7.5,42.0,11.5,1.5493609000000106
5,1,inverse_cdf,7,141,142.5,36.5,67.5,35.5,2.134450900000047
5,1,inverse_cdf,7,142,60.0,18.5,42.0,18.0,2.2282219999997324
5,1,inverse_cdf,7,143,120.0,25.5,42.0,26.0,2.216614700000264
5,1,inverse_cdf,7,144,90.0,22.0,49.0,22.0,2.0749823999999535
5,1,inverse_cdf,7,145,7.5,2.5,42.0,2.5,1.6447622999999112
5,1,inverse_cdf,7,146,157.5,40.0,73.0,39.0,1.8987472000003436
5,1,inverse_cdf,7,147,105.0,23.0,42.0,23.0,1.4741725000003498
5,1,inverse_cdf,7,148,82.5,21.5,42.0,21.5,1.8984737999999195
5,1,inverse_cdf,7,149,135.0,32.5,41.5,35.5,2.1113815999997314
5,1,inverse_cdf,7,150,15.0,3.0,42.0,5.0,2.3586193999999523
5,1,inverse_cdf,7,151,127.5,28.0,64.5,25.0,1.6038573999999244
5,1,inverse_cdf,7,152,112.5,24.0,47.5,23.0,2.0869385999999395
5,1,inverse_cdf,7,153,52.5,16.0,55.0,16.0,2.3109544999997524
5,1,inverse_cdf,7,154,97.5,22.5,42.0,22.5,2.442240799999581
5,1,inverse_cdf,7,155,22.5,4.0,42.0,7.5,1.9273642000002835
5,1,inverse_cdf,7,156,45.0,11.5,41.0,16.0,1.899048700000094
5,1,inverse_cdf,7,157,30.0,5.0,37.0,11.5,1.9460008000000928
5,1,inverse_cdf,7,158,75.0,21.0,42.0,20.0,2.7117686999999933
5,1,inverse_cdf,7,159,150.0,39.0,44.0,40.0,2.6290885999997045
5,1,inverse_cdf,7,160,67.5,20.0,42.0,20.0,2.169478999999683
5,1,inverse_cdf,7,161,165.0,41.0,49.5,41.5,1.7449046000001545
5,1,inverse_cdf,8,162,82.5,21.5,45.5,21.5,2.444808700000067
5,1,inverse_cdf,8,163,45.0,11.5,43.0,16.0,1.9808661000001848
5,1,inverse_cdf,8,164,22.5,4.0,42.0,11.5,1.8392086999997448
5,1,inverse_cdf,8,165,67.5,20.0,42.0,20.0,1.7214642999997525
5,1,inverse_cdf,8,166,105.0,23.0,51.5,23.0,2.299453800000265
5,1,inverse_cdf,8,167,142.5,36.5,56.5,36.5,2.2990146000001914
5,1,inverse_cdf,8,168,75.0,21.0,42.0,20.0,2.2235939000001963
5,1,inverse_cdf,8,169,30.0,5.0,42.0,7.5,1.6155234999996535
5,1,inverse_cdf,8,170,172.5,41.5,54.5,41.5,1.379578699999911
5,1,inverse_cdf,8,171,120.0,25.5,42.0,25.0,2.076383699999951
5,1,inverse_cdf,8,172,127.5,28.0,42.0,32.5,2.3937347000000955
5,1,inverse_cdf,8,173,90.0,22.0,42.0,22.0,1.874890399999913
5,1,inverse_cdf,8,174,37.5,7.5,42.0,11.5,1.910072600000149
5,1,inverse_cdf,8,175,97.5,22.5,59.5,22.5,2.14587900000015
5,1,inverse_cdf,8,176,15.0,3.0,42.0,4.0,1.898144599999796
5,1,inverse_cdf,8,177,165.0,41.0,79.0,40.0,1.664321100000052
5,1,inverse_cdf,8,178,60.0,18.5,42.0,20.0,1.8408705000001648
5,1,inverse_cdf,8,179,135.0,32.5,42.0,36.0,1.5125898000001143
5,1,inverse_cdf,8,180,7.5,2.5,42.0,2.5,2.1458572999999888
5,1,inverse_cdf,8,181,52.5,16.0,42.0,16.0,2.052311599999939
5,1,inverse_cdf,8,182,157.5,40.0,58.5,40.0,1.888023399999838
5,1,inverse_cdf,8,183,150.0,39.0,48.5,39.5,2.405414899999869
5,1,inverse_cdf,8,184,112.5,24.0,42.0,25.0,2.240722700000333
5,2,cdf,1,1,15.0,8.0,42.0,8.0,1.7096743999991304
5,2,cdf,1,2,30.0,11.0,42.0,10.0,2.0751252000000022
5,2,cdf,1,3,127.5,31.5,47.5,32.0,1.6154028000000835
5,2,cdf,1,4,67.5,14.0,42.0,16.0,2.4879285999995773
5,2,cdf,1,5,120.0,31.0,54.0,31.5,2.476189500000146
5,2,cdf,1,6,82.5,18.5,42.0,18.5,2.475809099999424
5,2,cdf,1,7,157.5,34.0,67.5,34.0,2.676654399999279
5,2,cdf,1,8,52.5,12.5,50.0,12.5,2.3948583000001236
5,2,cdf,1,9,45.0,12.0,47.5,12.0,2.866564500000095
5,2,cdf,1,10,165.0,36.0,71.5,36.0,2.6056305000001885
5,2,cdf,1,11,150.0,33.0,70.5,32.5,2.4993845999997575
5,2,cdf,1,12,135.0,32.0,0.0,,
5,2,cdf,1,13,142.5,32.5,63.0,32.0,1.6271636000001308
5,2,cdf,1,14,22.5,10.0,42.0,10.0,2.0396123000000443
5,2,cdf,1,15,90.0,22.0,63.5,22.0,1.6051476000002367
5,2,cdf,1,16,172.5,38.5,80.0,38.5,2.1372605000005933
5,2,cdf,1,17,75.0,16.0,42.0,16.0,1.8040908000002671
5,2,cdf,1,18,37.5,11.5,48.0,11.5,1.8159538999998404
5,2,cdf,1,19,60.0,13.0,53.5,13.0,2.6526495000007344
5,2,cdf,1,20,105.0,28.0,52.0,28.0,1.82759999999962
5,2,cdf,1,21,97.5,25.5,42.0,25.5,1.9926206000000093
5,2,cdf,1,22,112.5,30.0,70.5,28.0,2.098898199999894
5,2,cdf,1,23,7.5,5.5,42.0,5.5,1.8157646999998176
5,2,cdf,2,24,90.0,22.0,63.0,22.0,1.9519348000003447
5,2,cdf,2,25,112.5,30.0,0.0,,
5,2,cdf,2,26,127.5,31.5,42.0,31.0,1.1325429000007716
5,2,cdf,2,27,67.5,14.0,42.0,16.0,1.6998063000000911
5,2,cdf,2,28,22.5,10.0,42.0,10.0,1.8746058999995512
5,2,cdf,2,29,15.0,8.0,42.0,8.0,1.6507925999994768
5,2,cdf,2,30,172.5,38.5,49.0,38.5,1.037747500000478
5,2,cdf,2,31,75.0,16.0,52.5,16.0,1.780587000000196
5,2,cdf,2,32,135.0,32.0,59.5,32.0,2.182005799999388
5,2,cdf,2,33,30.0,11.0,52.0,11.5,2.794233499999791
5,2,cdf,2,34,142.5,32.5,60.0,32.5,1.9808584000002156
5,2,cdf,2,35,165.0,36.0,68.5,33.5,2.3462884999999005
5,2,cdf,2,36,105.0,28.0,47.0,28.0,2.1944345000001704
5,2,cdf,2,37,120.0,31.0,42.0,28.0,2.971131499999501
5,2,cdf,2,38,37.5,11.5,0.0,,
5,2,cdf,2,39,157.5,34.0,65.0,34.0,2.570957100000669
5,2,cdf,2,40,7.5,5.5,42.0,5.5,1.4644076000004134
5,2,cdf,2,41,52.5,12.5,42.0,12.5,2.7366128999992725
5,2,cdf,2,42,45.0,12.0,42.0,12.5,2.7837361000001692
5,2,cdf,2,43,60.0,13.0,42.0,15.5,2.6650331000000733
5,2,cdf,2,44,82.5,18.5,42.0,18.5,1.8631759999998392
5,2,cdf,2,45,150.0,33.0,69.0,32.5,2.052107000000433
5,2,cdf,2,46,97.5,25.5,42.0,25.5,2.145874800000456
5,2,cdf,3,47,90.0,22.0,42.0,22.0,2.083778799999891
5,2,cdf,3,48,157.5,34.0,42.0,34.0,2.456645500000377
5,2,cdf,3,49,60.0,13.0,48.5,14.0,2.2522307999997793
5,2,cdf,3,50,45.0,12.0,43.5,12.5,2.334453499999654
5,2,cdf,3,51,150.0,33.0,71.5,32.0,2.2165788000002067
5,2,cdf,3,52,135.0,32.0,59.5,31.5,2.440438699999504
5,2,cdf,3,53,30.0,11.0,42.0,10.0,1.895748099999764
5,2,cdf,3,54,97.5,25.5,42.0,25.5,2.3360412000001816
5,2,cdf,3,55,112.5,30.0,42.0,28.0,2.1696181999996043
5,2,cdf,3,56,82.5,18.5,42.0,18.5,2.004520699999375
5,2,cdf,3,57,172.5,38.5,47.0,38.5,2.098750499999369
5,2,cdf,3,58,127.5,31.5,57.5,31.0,1.8040878000001612
5,2,cdf,3,59,142.5,32.5,47.0,31.5,2.0987226999995983
5,2,cdf,3,60,75.0,16.0,42.0,16.0,1.9336450999999215
5,2,cdf,3,61,37.5,11.5,43.0,12.5,1.8395682000000304
5,2,cdf,3,62,120.0,31.0,48.5,31.0,1.879879300000539
5,2,cdf,3,63,15.0,8.0,42.0,8.0,2.666582400000152
5,2,cdf,3,64,22.5,10.0,42.0,10.0,2.0882253999998284
5,2,cdf,3,65,52.5,12.5,41.5,14.0,1.6755880000000616
5,2,cdf,3,66,105.0,28.0,42.0,25.5,2.5938467000005403
5,2,cdf,3,67,67.5,14.0,42.0,16.0,1.886475799999971
5,2,cdf,3,68,165.0,36.0,42.0,36.0,2.346100200000365
5,2,cdf,3,69,7.5,5.5,42.0,5.5,1.4036777999999686
5,2,cdf,4,70,127.5,31.5,42.0,30.5,1.9501068999998097
5,2,cdf,4,71,120.0,31.0,42.0,30.0,2.2048744000003353
5,2,cdf,4,72,90.0,22.0,42.0,22.0,2.1575825999998415
5,2,cdf,4,73,67.5,14.0,42.0,16.0,2.134111200000006
5,2,cdf,4,74,7.5,5.5,42.0,5.5,2.098692699999446
5,2,cdf,4,75,37.5,11.5,42.0,11.5,2.4288142999994307
5,2,cdf,4,76,60.0,13.0,42.0,12.5,2.181621499999892
5,2,cdf,4,77,45.0,12.0,42.0,12.5,1.7226304999994682
5,2,cdf,4,78,165.0,36.0,64.0,34.0,2.393816199999492
5,2,cdf,4,79,135.0,32.0,42.0,32.0,2.606068099999902
5,2,cdf,4,80,52.5,12.5,42.0,14.0,2.773300300000301
5,2,cdf,4,81,15.0,8.0,0.0,,
5,2,cdf,4,82,75.0,16.0,55.0,18.5,1.6522110999994766
5,2,cdf,4,83,150.0,33.0,51.5,32.5,1.28551570000036
5,2,cdf,4,84,97.5,25.5,45.5,25.5,1.7338221999998495
5,2,cdf,4,85,112.5,30.0,42.0,28.0,2.723260100000516
5,2,cdf,4,86,30.0,11.0,52.0,12.0,2.4523074999997334
5,2,cdf,4,87,82.5,18.5,42.0,18.5,2.2992855000002237
5,2,cdf,4,88,22.5,10.0,42.0,10.0,1.921927299999879
5,2,cdf,4,89,172.5,38.5,47.5,38.5,2.487695400000121
5,2,cdf,4,90,157.5,34.0,52.5,33.5,2.723704699999871
5,2,cdf,4,91,105.0,28.0,57.0,28.0,2.405208400000447
5,2,cdf,4,92,142.5,32.5,73.5,31.5,1.367789000000812
5,2,cdf,5,93,135.0,32.0,51.0,31.5,1.8442040999998424
5,2,cdf,5,94,45.0,12.0,49.5,12.5,1.7450654999993276
5,2,cdf,5,95,30.0,11.0,42.0,12.0,2.8419174000000567
5,2,cdf,5,96,60.0,13.0,42.0,14.0,1.6623552999999447
5,2,cdf,5,97,82.5,18.5,42.0,18.5,2.135171800000535
5,2,cdf,5,98,165.0,36.0,42.0,38.5,2.5358788000003187
5,2,cdf,5,99,67.5,14.0,42.0,16.0,1.910179700000299
5,2,cdf,5,100,90.0,22.0,58.0,22.0,2.0868995000000723
5,2,cdf,5,101,75.0,16.0,48.5,16.0,2.3816486999994595
5,2,cdf,5,102,127.5,31.5,49.0,31.0,1.8511842000007164
5,2,cdf,5,103,97.5,25.5,56.0,25.5,1.9101356999999552
5,2,cdf,5,104,150.0,33.0,42.0,32.5,2.1693720999992365
5,2,cdf,5,105,120.0,31.0,67.0,31.0,2.5706196000001
5,2,cdf,5,106,112.5,30.0,0.0,,
5,2,cdf,5,107,37.5,11.5,53.5,11.5,2.240529400000014
5,2,cdf,5,108,172.5,38.5,50.0,38.5,2.0987821999997323
5,2,cdf,5,109,52.5,12.5,42.0,14.0,2.4885692999996536
5,2,cdf,5,110,157.5,34.0,75.0,34.0,2.2645933000003424
5,2,cdf,5,111,142.5,32.5,59.0,32.0,2.4050726999994367
5,2,cdf,5,112,15.0,8.0,42.0,10.0,1.3678565000000162
5,2,cdf,5,113,22.5,10.0,42.0,10.0,1.650820999999269
5,2,cdf,5,114,105.0,28.0,47.0,25.5,2.1576193000000785
5,2,cdf,5,115,7.5,5.5,42.0,5.5,1.7686101999997843
5,2,cdf,6,116,172.5,38.5,68.5,38.5,2.0397398000004614
5,2,cdf,6,117,67.5,14.0,42.0,16.0,1.8276667999998608
5,2,cdf,6,118,37.5,11.5,52.0,12.5,2.2755232999998043
5,2,cdf,6,119,165.0,36.0,63.5,36.0,2.2637910999992528
5,2,cdf,6,120,120.0,31.0,61.5,31.0,1.9454476999999315
5,2,cdf,6,121,7.5,5.5,42.0,5.5,2.0284036000002743
5,2,cdf,6,122,157.5,34.0,70.0,34.0,1.9297386999996888
5,2,cdf,6,123,60.0,13.0,42.0,16.0,2.4995378000003257
5,2,cdf,6,124,82.5,18.5,42.0,18.5,2.4995028000003003
5,2,cdf,6,125,75.0,16.0,0.0,,
5,2,cdf,6,126,135.0,32.0,67.0,31.5,1.4855694999996558
5,2,cdf,6,127,150.0,33.0,54.0,32.0,2.5819180999997116
5,2,cdf,6,128,127.5,31.5,46.5,31.5,1.4855985000003784
5,2,cdf,6,129,90.0,22.0,54.0,22.0,2.416860500000439
5,2,cdf,6,130,15.0,8.0,42.0,8.0,1.969027599999208
5,2,cdf,6,131,97.5,25.5,42.0,25.5,1.9379828000001
5,2,cdf,6,132,105.0,28.0,61.5,25.5,2.381734900000083
5,2,cdf,6,133,142.5,32.5,51.5,32.0,2.4641897999999856
5,2,cdf,6,134,52.5,12.5,42.0,14.0,2.34625589999996
5,2,cdf,6,135,22.5,10.0,42.0,10.0,2.2049599999991187
5,2,cdf,6,136,45.0,12.0,42.0,12.5,2.2989632000007987
5,2,cdf,6,137,30.0,11.0,52.5,11.5,1.6269554999998943
5,2,cdf,6,138,112.5,30.0,65.5,28.0,2.688217699999768
5,2,cdf,7,139,165.0,36.0,65.0,36.0,2.371001000000433
5,2,cdf,7,140,30.0,11.0,42.0,11.5,1.957192799999575
5,2,cdf,7,141,52.5,12.5,42.0,14.0,1.6625569999996517
5,2,cdf,7,142,97.5,25.5,42.0,25.5,1.8509836000002904
5,2,cdf,7,143,67.5,14.0,45.0,16.0,2.086898999999903
5,2,cdf,7,144,82.5,18.5,58.5,18.5,2.228448500000013
5,2,cdf,7,145,142.5,32.5,49.5,32.0,2.291862500000206
5,2,cdf,7,146,127.5,31.5,67.5,31.5,2.727489899999455
5,2,cdf,7,147,90.0,22.0,42.0,22.0,2.1702037000004566
5,2,cdf,7,148,75.0,16.0,42.0,18.5,1.497486199999912
5,2,cdf,7,149,157.5,34.0,66.0,34.0,2.6056219000001875
5,2,cdf,7,150,135.0,32.0,46.0,32.0,2.0044277999995757
5,2,cdf,7,151,60.0,13.0,50.0,14.0,1.721446699999433
5,2,cdf,7,152,7.5,5.5,42.0,8.0,2.6312581000001956
5,2,cdf,7,153,172.5,38.5,68.5,38.5,2.4173286000004737
5,2,cdf,7,154,120.0,31.0,42.0,31.0,2.0751075000007404
5,2,cdf,7,155,15.0,8.0,41.5,10.0,2.2521271999994497
5,2,cdf,7,156,37.5,11.5,42.0,12.5,1.4159524999995483
5,2,cdf,7,157,105.0,28.0,44.0,28.0,1.485532400000011
5,2,cdf,7,158,150.0,33.0,42.0,32.5,1.8981406000002607
5,2,cdf,7,159,112.5,30.0,71.5,28.0,1.709663300000102
5,2,cdf,7,160,45.0,12.0,45.0,12.5,2.181366199999502
5,2,cdf,7,161,22.5,10.0,41.5,11.5,2.0633832000003167
5,2,cdf,8,162,127.5,31.5,42.0,31.0,2.2529881000000387
5,2,cdf,8,163,165.0,36.0,44.0,36.5,2.381655199999841
5,2,cdf,8,164,135.0,32.0,42.0,32.0,2.298977399999785
5,2,cdf,8,165,67.5,14.0,42.0,16.0,2.4288605000001553
5,2,cdf,8,166,120.0,31.0,71.5,30.0,2.334436899999673
5,2,cdf,8,167,52.5,12.5,52.5,14.0,1.7223739000000933
5,2,cdf,8,168,15.0,8.0,42.0,10.0,2.326780299999882
5,2,cdf,8,169,82.5,18.5,47.5,18.5,2.145855999999185
5,2,cdf,8,170,172.5,38.5,58.5,38.5,2.5585543999995934
5,2,cdf,8,171,37.5,11.5,42.0,11.5,2.169446500000049
5,2,cdf,8,172,7.5,5.5,42.0,8.0,1.8399884999998903
5,2,cdf,8,173,30.0,11.0,42.0,10.0,2.5230704999994487
5,2,cdf,8,174,112.5,30.0,42.0,30.0,1.9113134999997785
5,2,cdf,8,175,22.5,10.0,42.0,10.0,2.5822071000002325
5,2,cdf,8,176,97.5,25.5,47.0,25.5,1.7813900999999532
5,2,cdf,8,177,45.0,12.0,42.0,14.0,1.886536199999682
5,2,cdf,8,178,157.5,34.0,45.5,34.0,2.523089600000276
5,2,cdf,8,179,90.0,22.0,42.0,22.0,1.8988688999997976
5,2,cdf,8,180,142.5,32.5,48.5,32.5,1.9225820999999996
5,2,cdf,8,181,75.0,16.0,42.0,16.0,1.6979715000006763
5,2,cdf,8,182,150.0,33.0,70.5,32.5,2.440571099999943
5,2,cdf,8,183,60.0,13.0,42.0,16.0,1.6980644999994183
5,2,cdf,8,184,105.0,28.0,45.0,25.5,2.3344772999998895
7,1,inverse_cdf,1,1,120.0,25.5,53.0,25.5,2.7253037999998924
7,1,inverse_cdf,1,2,127.5,28.0,0.0,,
7,1,inverse_cdf,1,3,45.0,11.5,44.0,11.5,1.2381525000000693
7,1,inverse_cdf,1,4,60.0,18.5,53.5,16.0,1.898348299999725
7,1,inverse_cdf,1,5,142.5,36.5,61.0,32.5,2.912103300000126
7,1,inverse_cdf,1,6,7.5,2.5,0.0,,
7,1,inverse_cdf,1,7,90.0,22.0,43.0,22.0,2.7237232000002223
7,1,inverse_cdf,1,8,172.5,41.5,48.0,39.5,2.288871400000062
7,1,inverse_cdf,1,9,165.0,41.0,59.5,41.0,1.285823200000323
7,1,inverse_cdf,1,10,82.5,21.5,44.0,21.0,1.8041265000001656
7,1,inverse_cdf,1,11,52.5,16.0,56.0,11.5,2.0990240000000995
7,1,inverse_cdf,1,12,15.0,3.0,0.0,,
7,1,inverse_cdf,1,13,105.0,23.0,47.5,24.0,1.7213048999997227
7,1,inverse_cdf,1,14,67.5,20.0,42.0,20.0,1.851150399999824
7,1,inverse_cdf,1,15,30.0,5.0,42.0,5.0,1.756812699999955
7,1,inverse_cdf,1,16,150.0,39.0,61.0,39.0,2.1106284999996205
7,1,inverse_cdf,1,17,157.5,40.0,71.5,38.5,1.7592202000000725
7,1,inverse_cdf,1,18,135.0,32.5,53.5,32.5,1.922167299999728
7,1,inverse_cdf,1,19,97.5,22.5,52.0,23.0,1.9930199999998877
7,1,inverse_cdf,1,20,22.5,4.0,42.0,7.0,2.8548077000000376
7,1,inverse_cdf,1,21,112.5,24.0,53.5,24.0,1.9693935999998755
7,1,inverse_cdf,1,22,37.5,7.5,46.0,11.5,1.568069899999955
7,1,inverse_cdf,1,23,75.0,21.0,42.0,18.0,2.5705293999999412
7,1,inverse_cdf,2,24,15.0,3.0,42.0,3.0,1.8981222000002165
7,1,inverse_cdf,2,25,97.5,22.5,42.0,23.0,1.9454405000001316
7,1,inverse_cdf,2,26,52.5,16.0,42.0,16.0,1.5681926000002022
7,1,inverse_cdf,2,27,112.5,24.0,42.0,25.5,1.4501749999999447
7,1,inverse_cdf,2,28,82.5,21.5,62.5,21.5,1.5339042999999035
7,1,inverse_cdf,2,29,67.5,20.0,42.0,16.0,2.122305200000028
7,1,inverse_cdf,2,30,22.5,4.0,42.0,6.0,2.3445338999999876
7,1,inverse_cdf,2,31,90.0,22.0,42.0,22.0,1.464115700000093
7,1,inverse_cdf,2,32,60.0,18.5,42.0,16.0,2.841424299999744
7,1,inverse_cdf,2,33,30.0,5.0,42.0,7.0,1.2498983999998927
7,1,inverse_cdf,2,34,37.5,7.5,42.0,11.5,1.2498864000003778
7,1,inverse_cdf,2,35,150.0,39.0,42.0,36.5,1.7448655999996845
7,1,inverse_cdf,2,36,120.0,25.5,41.5,28.5,2.0044167999999445
7,1,inverse_cdf,2,37,157.5,40.0,43.0,40.0,1.9690662000002703
7,1,inverse_cdf,2,38,127.5,28.0,62.5,32.5,2.1812364999996134
7,1,inverse_cdf,2,39,165.0,41.0,72.5,41.0,1.190532500000245
7,1,inverse_cdf,2,40,75.0,21.0,48.0,16.0,1.6625310000003992
7,1,inverse_cdf,2,41,7.5,2.5,42.0,3.0,2.0043674999997165
7,1,inverse_cdf,2,42,105.0,23.0,47.5,24.0,1.5328208000000814
7,1,inverse_cdf,2,43,135.0,32.5,53.0,32.5,1.556786000000102
7,1,inverse_cdf,2,44,45.0,11.5,42.0,16.0,2.157834499999808
7,1,inverse_cdf,2,45,172.5,41.5,49.0,41.5,1.4745067000003471
7,1,inverse_cdf,2,46,142.5,36.5,71.5,39.0,1.5916024999996807
7,1,inverse_cdf,3,47,142.5,36.5,77.0,36.5,1.6051519000002372
7,1,inverse_cdf,3,48,30.0,5.0,42.0,11.5,1.4866107000007105
7,1,inverse_cdf,3,49,135.0,32.5,42.0,32.5,1.592390400000113
7,1,inverse_cdf,3,50,97.5,22.5,42.0,23.0,1.8865430999994717
7,1,inverse_cdf,3,51,150.0,39.0,62.5,39.0,1.804252699999779
7,1,inverse_cdf,3,52,15.0,3.0,42.0,4.0,1.7920830000002752
7,1,inverse_cdf,3,53,45.0,11.5,42.0,11.5,2.051536999999371
7,1,inverse_cdf,3,54,75.0,21.0,42.0,18.0,2.157811000000038
7,1,inverse_cdf,3,55,90.0,22.0,49.0,22.0,2.416997999999694
7,1,inverse_cdf,3,56,127.5,28.0,60.0,32.5,1.3677991999993535
7,1,inverse_cdf,3,57,67.5,20.0,51.5,18.0,1.8511196999997992
7,1,inverse_cdf,3,58,157.5,40.0,65.5,39.0,1.8885995000000548
7,1,inverse_cdf,3,59,105.0,23.0,45.0,28.0,2.2284434000002875
7,1,inverse_cdf,3,60,82.5,21.5,48.0,21.0,2.016174399999727
7,1,inverse_cdf,3,61,60.0,18.5,42.0,18.0,2.0992184999995516
7,1,inverse_cdf,3,62,112.5,24.0,42.0,24.0,2.641318400000273
7,1,inverse_cdf,3,63,120.0,25.5,42.0,32.5,1.9482781999995495
7,1,inverse_cdf,3,64,37.5,7.5,42.0,11.5,1.6624770999997054
7,1,inverse_cdf,3,65,172.5,41.5,42.0,2.5,1.662552599999799
7,1,inverse_cdf,3,66,22.5,4.0,41.5,8.0,1.9219108999996024
7,1,inverse_cdf,3,67,7.5,2.5,42.0,3.0,2.287317599999369
7,1,inverse_cdf,3,68,52.5,16.0,42.0,16.0,2.5702633999999307
7,1,inverse_cdf,3,69,165.0,41.0,55.5,39.0,2.70068209999954
7,1,inverse_cdf,4,70,142.5,36.5,66.0,36.5,1.5917951000001267
7,1,inverse_cdf,4,71,172.5,41.5,44.5,40.0,1.6977035999998409
7,1,inverse_cdf,4,72,135.0,32.5,59.0,32.5,2.1340839999993477
7,1,inverse_cdf,4,73,97.5,22.5,42.0,23.0,1.3915771000001769
7,1,inverse_cdf,4,74,15.0,3.0,42.0,5.0,1.14393790000031
7,1,inverse_cdf,4,75,157.5,40.0,42.0,32.5,2.5820860999992874
7,1,inverse_cdf,4,76,150.0,39.0,78.5,36.5,1.9455234000006385
7,1,inverse_cdf,4,77,30.0,5.0,42.0,11.5,1.7576322000004438
7,1,inverse_cdf,4,78,22.5,4.0,42.0,7.5,1.4621355999997832
7,1,inverse_cdf,4,79,127.5,28.0,42.0,28.5,1.8637323000002652
7,1,inverse_cdf,4,80,45.0,11.5,42.0,16.0,2.39348659999996
7,1,inverse_cdf,4,81,37.5,7.5,42.0,11.5,1.9100659999994605
7,1,inverse_cdf,4,82,82.5,21.5,53.0,21.5,1.8629885000000288
7,1,inverse_cdf,4,83,67.5,20.0,42.0,18.0,1.7097155999999814
7,1,inverse_cdf,4,84,52.5,16.0,42.0,16.0,0.8732843999996476
7,1,inverse_cdf,4,85,120.0,25.5,0.0,,
7,1,inverse_cdf,4,86,7.5,2.5,43.5,2.5,1.6875661000003674
7,1,inverse_cdf,4,87,75.0,21.0,50.0,20.0,2.1465626999997767
7,1,inverse_cdf,4,88,112.5,24.0,42.0,25.0,1.699008600000525
7,1,inverse_cdf,4,89,105.0,23.0,42.0,24.0,1.7685866000001624
7,1,inverse_cdf,4,90,90.0,22.0,42.0,22.0,1.8041667000006785
7,1,inverse_cdf,4,91,165.0,41.0,58.5,39.5,2.358392499999354
7,1,inverse_cdf,4,92,60.0,18.5,48.0,16.0,0.9669960000001084
7,1,inverse_cdf,5,93,82.5,21.5,54.5,20.0,2.1929919000003792
7,1,inverse_cdf,5,94,172.5,41.5,78.5,41.5,2.794222699999409
7,1,inverse_cdf,5,95,105.0,23.0,42.0,24.0,2.087000999999873
7,1,inverse_cdf,5,96,112.5,24.0,56.5,25.5,1.6389716000003318
7,1,inverse_cdf,5,97,52.5,16.0,42.0,16.0,2.6526244000006045
7,1,inverse_cdf,5,98,90.0,22.0,42.0,21.5,1.698765099999946
7,1,inverse_cdf,5,99,22.5,4.0,42.0,11.5,1.6741492000001017
7,1,inverse_cdf,5,100,135.0,32.5,67.5,32.5,2.499658100000488
7,1,inverse_cdf,5,101,150.0,39.0,76.5,32.5,1.533063900000343
7,1,inverse_cdf,5,102,45.0,11.5,42.0,13.5,2.5355481000005966
7,1,inverse_cdf,5,103,97.5,22.5,51.0,22.5,1.0259050000004208
7,1,inverse_cdf,5,104,75.0,21.0,46.5,21.0,2.6645622999994885
7,1,inverse_cdf,5,105,37.5,7.5,42.0,11.5,2.181240699999762
7,1,inverse_cdf,5,106,165.0,41.0,77.5,36.0,2.853202700000111
7,1,inverse_cdf,5,107,30.0,5.0,40.0,7.5,2.843269699999837
7,1,inverse_cdf,5,108,15.0,3.0,42.0,4.5,2.477906900000562
7,1,inverse_cdf,5,109,60.0,18.5,45.0,16.0,1.0847171999994316
7,1,inverse_cdf,5,110,120.0,25.5,43.0,28.0,1.9581858999999897
7,1,inverse_cdf,5,111,67.5,20.0,42.0,18.0,1.1909539999996923
7,1,inverse_cdf,5,112,142.5,36.5,61.5,36.5,1.5565125000002809
7,1,inverse_cdf,5,113,7.5,2.5,42.0,2.5,1.7920189999995273
7,1,inverse_cdf,5,114,157.5,40.0,51.0,38.5,1.911280600000282
7,1,inverse_cdf,5,115,127.5,28.0,42.0,28.5,1.5209025000003749
7,1,inverse_cdf,6,116,150.0,39.0,56.0,32.5,1.0495375999998942
7,1,inverse_cdf,6,117,37.5,7.5,46.0,11.5,1.214743699999417
7,1,inverse_cdf,6,118,52.5,16.0,56.5,16.0,2.0995444000000134
7,1,inverse_cdf,6,119,105.0,23.0,42.0,23.5,1.261677299999974
7,1,inverse_cdf,6,120,172.5,41.5,42.0,40.0,1.3677559999996447
7,1,inverse_cdf,6,121,75.0,21.0,57.0,21.0,1.5209020000002056
7,1,inverse_cdf,6,122,135.0,32.5,48.0,32.5,1.957225500000277
7,1,inverse_cdf,6,123,142.5,36.5,57.5,35.5,2.6881117000002632
7,1,inverse_cdf,6,124,45.0,11.5,42.0,16.0,2.217257499999505
7,1,inverse_cdf,6,125,90.0,22.0,42.0,22.0,2.0520526000000245
7,1,inverse_cdf,6,126,82.5,21.5,42.0,21.5,2.1576305999997203
7,1,inverse_cdf,6,127,165.0,41.0,49.0,41.0,1.8292398000003232
7,1,inverse_cdf,6,128,127.5,28.0,46.5,30.5,2.0868688000000475
7,1,inverse_cdf,6,129,157.5,40.0,45.0,39.0,2.369866000000002
7,1,inverse_cdf,6,130,30.0,5.0,38.5,11.5,1.638985099999445
7,1,inverse_cdf,6,131,67.5,20.0,59.0,20.0,1.8384660000001531
7,1,inverse_cdf,6,132,120.0,25.5,42.0,27.5,1.9808545999994749
7,1,inverse_cdf,6,133,22.5,4.0,42.0,7.0,1.8172654999998483
7,1,inverse_cdf,6,134,112.5,24.0,66.0,25.0,1.6860684000002948
7,1,inverse_cdf,6,135,60.0,18.5,46.5,18.0,1.6508451999998217
7,1,inverse_cdf,6,136,15.0,3.0,42.0,5.0,2.004553400000077
7,1,inverse_cdf,6,137,7.5,2.5,42.0,3.0,1.8391891000001124
7,1,inverse_cdf,6,138,97.5,22.5,54.0,22.5,2.3463301000001593
7,1,inverse_cdf,7,139,120.0,25.5,66.0,25.0,2.358052900000075
7,1,inverse_cdf,7,140,52.5,16.0,42.0,16.0,1.9100705999999263
7,1,inverse_cdf,7,141,15.0,3.0,42.0,4.0,2.240135399999417
7,1,inverse_cdf,7,142,150.0,39.0,68.5,32.5,1.6271318999997677
7,1,inverse_cdf,7,143,45.0,11.5,41.0,16.0,1.6271559999995588
7,1,inverse_cdf,7,144,112.5,24.0,40.0,28.0,1.9690044999997551
7,1,inverse_cdf,7,145,22.5,4.0,42.0,8.0,2.3301338000001124
7,1,inverse_cdf,7,146,105.0,23.0,47.0,23.0,1.167378500000268
7,1,inverse_cdf,7,147,135.0,32.5,69.5,32.0,2.9830218000006425
7,1,inverse_cdf,7,148,97.5,22.5,63.0,22.5,2.075096399999893
7,1,inverse_cdf,7,149,75.0,21.0,42.5,21.0,2.098774500000218
7,1,inverse_cdf,7,150,165.0,41.0,48.5,40.0,1.840883500000018
7,1,inverse_cdf,7,151,60.0,18.5,42.0,16.0,1.5331816000007166
7,1,inverse_cdf,7,152,67.5,20.0,56.5,18.0,1.3925574000004417
7,1,inverse_cdf,7,153,172.5,41.5,59.5,40.0,1.3099246000001583
7,1,inverse_cdf,7,154,142.5,36.5,40.5,39.0,1.5571122000001196
7,1,inverse_cdf,7,155,7.5,2.5,42.0,4.0,1.4627786000000924
7,1,inverse_cdf,7,156,157.5,40.0,60.0,36.0,1.9354681000004348
7,1,inverse_cdf,7,157,30.0,5.0,44.5,11.5,1.2143552999996243
7,1,inverse_cdf,7,158,82.5,21.5,61.0,21.5,1.5452054999996108
7,1,inverse_cdf,7,159,37.5,7.5,42.0,11.5,1.7338963000001968
7,1,inverse_cdf,7,160,127.5,28.0,52.5,28.5,1.8282746000004408
7,1,inverse_cdf,7,161,90.0,22.0,42.5,22.0,2.452393000000484
7,1,inverse_cdf,8,162,90.0,22.0,42.0,22.0,1.7214880999999878
7,1,inverse_cdf,8,163,60.0,18.5,42.0,16.0,1.3558360999995784
7,1,inverse_cdf,8,164,135.0,32.5,65.0,32.5,1.6273448000001736
7,1,inverse_cdf,8,165,67.5,20.0,42.0,18.0,2.1576273000000583
7,1,inverse_cdf,8,166,172.5,41.5,82.0,41.5,1.9454462000003332
7,1,inverse_cdf,8,167,7.5,2.5,42.0,3.0,2.287160299999414
7,1,inverse_cdf,8,168,142.5,36.5,45.5,36.5,2.930011899999954
7,1,inverse_cdf,8,169,30.0,5.0,42.0,11.5,1.745066499999666
7,1,inverse_cdf,8,170,112.5,24.0,42.0,25.5,1.5213589000004504
7,1,inverse_cdf,8,171,75.0,21.0,42.0,21.0,2.181324800000766
7,1,inverse_cdf,8,172,165.0,41.0,60.0,39.0,1.9572539999999208
7,1,inverse_cdf,8,173,120.0,25.5,45.5,28.0,1.108686900000066
7,1,inverse_cdf,8,174,15.0,3.0,42.0,3.0,1.9926309999991645
7,1,inverse_cdf,8,175,22.5,4.0,42.0,5.0,2.452383099999679
7,1,inverse_cdf,8,176,127.5,28.0,63.0,32.5,2.334546400000363
7,1,inverse_cdf,8,177,37.5,7.5,42.0,11.5,1.5446870999994644
7,1,inverse_cdf,8,178,105.0,23.0,42.0,23.0,2.417114699999729
7,1,inverse_cdf,8,179,52.5,16.0,42.0,16.5,1.4394686000005097
7,1,inverse_cdf,8,180,97.5,22.5,59.0,22.5,1.9454186000002665
7,1,inverse_cdf,8,181,150.0,39.0,68.0,36.5,1.7803764999998748
7,1,inverse_cdf,8,182,82.5,21.5,63.0,21.5,2.1222508999999263
7,1,inverse_cdf,8,183,45.0,11.5,42.0,16.0,1.957060000000638
7,1,inverse_cdf,8,184,157.5,40.0,70.0,36.5,2.6290359000004173
7,2,cdf,1,1,22.5,10.0,46.0,8.0,1.7923589000001812
7,2,cdf,1,2,105.0,28.0,42.0,30.0,2.2991753999999673
7,2,cdf,1,3,45.0,12.0,42.0,12.5,1.91005849999965
7,2,cdf,1,4,120.0,31.0,59.0,31.5,2.170237299999826
7,2,cdf,1,5,112.5,30.0,42.0,31.0,1.4149959999999735
7,2,cdf,1,6,165.0,36.0,51.0,36.0,1.8509899999999109
7,2,cdf,1,7,60.0,13.0,51.0,13.0,1.975445600000057
7,2,cdf,1,8,30.0,11.0,42.0,11.0,2.182040600000164
7,2,cdf,1,9,15.0,8.0,42.0,8.0,2.6292469999998502
7,2,cdf,1,10,142.5,32.5,56.5,33.0,1.4621411000002809
7,2,cdf,1,11,37.5,11.5,42.0,10.0,1.4856896000001143
7,2,cdf,1,12,157.5,34.0,45.5,34.0,1.83937350000042
7,2,cdf,1,13,75.0,16.0,42.0,16.0,1.6272257999999056
7,2,cdf,1,14,135.0,32.0,50.5,32.5,1.768559600000117
7,2,cdf,1,15,172.5,38.5,75.5,38.5,1.662874500000271
7,2,cdf,1,16,82.5,18.5,42.0,18.5,1.769269599999916
7,2,cdf,1,17,97.5,25.5,60.0,25.5,2.182372799999939
7,2,cdf,1,18,67.5,14.0,42.0,13.0,1.533708899999965
7,2,cdf,1,19,7.5,5.5,42.0,5.5,1.9814595000002555
7,2,cdf,1,20,150.0,33.0,66.0,33.0,2.0871932999998535
7,2,cdf,1,21,90.0,22.0,51.5,22.0,2.181221700000151
7,2,cdf,1,22,127.5,31.5,72.0,32.0,1.6156525000001238
7,2,cdf,1,23,52.5,12.5,42.0,13.0,1.1202723999999762
7,2,cdf,2,24,135.0,32.0,48.0,33.0,1.7343958000001294
7,2,cdf,2,25,67.5,14.0,42.0,13.0,1.1318474999998216
7,2,cdf,2,26,150.0,33.0,69.0,34.5,0.9669805999997152
7,2,cdf,2,27,22.5,10.0,50.5,10.0,1.2144828000000416
7,2,cdf,2,28,172.5,38.5,55.0,38.5,1.3324526000001242
7,2,cdf,2,29,52.5,12.5,42.0,12.5,1.6978598000000602
7,2,cdf,2,30,142.5,32.5,42.0,33.0,1.5100821000000906
7,2,cdf,2,31,97.5,25.5,54.5,28.0,2.004079699999693
7,2,cdf,2,32,90.0,22.0,42.0,22.0,2.2289904000003844
7,2,cdf,2,33,60.0,13.0,42.0,12.0,1.734802800000125
7,2,cdf,2,34,82.5,18.5,47.5,16.0,1.4624078000001646
7,2,cdf,2,35,75.0,16.0,42.0,14.0,1.4741448999998283
7,2,cdf,2,36,112.5,30.0,50.5,30.0,1.4155190999999832
7,2,cdf,2,37,165.0,36.0,50.0,36.0,1.6993844000003264
7,2,cdf,2,38,30.0,11.0,42.0,11.0,1.7332854999999654
7,2,cdf,2,39,120.0,31.0,42.0,31.0,1.9101104000001217
7,2,cdf,2,40,105.0,28.0,0.0,,
7,2,cdf,2,41,157.5,34.0,68.0,34.0,2.159091499999704
7,2,cdf,2,42,15.0,8.0,42.0,8.5,1.509809000000132
7,2,cdf,2,43,37.5,11.5,42.0,11.0,1.4391350000000784
7,2,cdf,2,44,7.5,5.5,44.5,5.5,1.6161969999998291
7,2,cdf,2,45,127.5,31.5,42.0,32.0,2.652855699999691
7,2,cdf,2,46,45.0,12.0,42.0,12.5,1.5564110999998777
7,2,cdf,3,47,157.5,34.0,54.5,34.0,1.5344319000000723
7,2,cdf,3,48,112.5,30.0,42.0,31.5,1.638783500000045
7,2,cdf,3,49,22.5,10.0,42.0,8.0,1.8750057999995988
7,2,cdf,3,50,127.5,31.5,62.5,32.5,1.2852546999997685
7,2,cdf,3,51,172.5,38.5,80.0,38.5,1.7577767000002495
7,2,cdf,3,52,142.5,32.5,51.0,34.0,1.815748700000313
7,2,cdf,3,53,135.0,32.0,69.5,33.0,1.8038612999998804
7,2,cdf,3,54,60.0,13.0,46.5,12.0,2.2518213999996988
7,2,cdf,3,55,90.0,22.0,42.0,22.0,1.8276396000001112
7,2,cdf,3,56,105.0,28.0,65.5,28.0,1.1672326999996585
7,2,cdf,3,57,52.5,12.5,42.0,13.0,1.674283600000308
7,2,cdf,3,58,82.5,18.5,42.0,18.5,1.7922019999996337
7,2,cdf,3,59,7.5,5.5,42.0,5.5,1.5564553000003798
7,2,cdf,3,60,165.0,36.0,68.5,36.0,2.3580422
7,2,cdf,3,61,45.0,12.0,42.0,11.5,1.9108036000002355
7,2,cdf,3,62,120.0,31.0,64.0,31.5,2.0515746000000945
7,2,cdf,3,63,37.5,11.5,42.0,13.0,1.380122300000039
7,2,cdf,3,64,30.0,11.0,42.0,10.0,1.344205200000033
7,2,cdf,3,65,150.0,33.0,70.5,33.0,1.485788499999671
7,2,cdf,3,66,67.5,14.0,47.0,14.0,1.4405034000001251
7,2,cdf,3,67,15.0,8.0,42.0,8.0,1.721470699999827
7,2,cdf,3,68,97.5,25.5,50.5,25.5,1.6861113999998452
7,2,cdf,3,69,75.0,16.0,49.5,14.0,0.8371096000000762
7,2,cdf,4,70,135.0,32.0,58.0,32.0,1.4974692999999206
7,2,cdf,4,71,82.5,18.5,42.0,16.0,1.1084022000000004
7,2,cdf,4,72,75.0,16.0,42.0,13.0,1.6861288999998578
7,2,cdf,4,73,127.5,31.5,41.5,33.0,1.509114599999975
7,2,cdf,4,74,105.0,28.0,42.5,30.0,2.039772100000391
7,2,cdf,4,75,112.5,30.0,42.0,29.0,2.4993648999998186
7,2,cdf,4,76,165.0,36.0,69.0,36.0,1.6387531000000308
7,2,cdf,4,77,142.5,32.5,51.0,33.0,1.1084570999996686
7,2,cdf,4,78,45.0,12.0,51.0,12.0,1.3913493999998536
7,2,cdf,4,79,157.5,34.0,61.0,34.0,1.0849032999999508
7,2,cdf,4,80,37.5,11.5,42.0,12.0,2.346110299999964
7,2,cdf,4,81,150.0,33.0,75.0,34.0,1.3442347999998674
7,2,cdf,4,82,90.0,22.0,49.0,22.5,2.322687400000177
7,2,cdf,4,83,172.5,38.5,45.5,38.5,1.6623485999998593
7,2,cdf,4,84,60.0,13.0,42.0,13.0,1.9218441999996685
7,2,cdf,4,85,22.5,10.0,42.0,10.0,1.7095079999999143
7,2,cdf,4,86,15.0,8.0,43.0,8.0,0.8138923999999861
7,2,cdf,4,87,120.0,31.0,63.0,31.0,0.6605026000001999
7,2,cdf,4,88,7.5,5.5,42.0,5.5,1.6051886000000195
7,2,cdf,4,89,97.5,25.5,46.0,25.5,2.829953999999816
7,2,cdf,4,90,52.5,12.5,42.0,12.5,1.8062362999999095
7,2,cdf,4,91,30.0,11.0,42.0,8.0,1.8745638999998848
7,2,cdf,4,92,67.5,14.0,55.5,14.0,1.8982590999999047
7,2,cdf,5,93,165.0,36.0,48.0,36.0,1.5941514000001007
7,2,cdf,5,94,37.5,11.5,43.0,12.0,1.4619478000004165
7,2,cdf,5,95,90.0,22.0,42.0,22.0,1.5917954999999893
7,2,cdf,5,96,7.5,5.5,42.0,5.5,1.5210699000003842
7,2,cdf,5,97,120.0,31.0,59.0,32.0,1.084925199999816
7,2,cdf,5,98,172.5,38.5,47.0,38.5,1.9336748000000623
7,2,cdf,5,99,127.5,31.5,61.0,33.0,2.0161871000000247
7,2,cdf,5,100,142.5,32.5,53.5,33.0,2.6292765000002873
7,2,cdf,5,101,30.0,11.0,42.0,11.0,1.473748599999908
7,2,cdf,5,102,67.5,14.0,42.0,13.0,1.827522399999907
7,2,cdf,5,103,97.5,25.5,44.0,25.5,1.7096238000003725
7,2,cdf,5,104,157.5,34.0,42.0,36.0,1.6153417000000443
7,2,cdf,5,105,45.0,12.0,42.0,12.0,1.4985391999998685
7,2,cdf,5,106,105.0,28.0,68.5,28.0,1.6035968999999568
7,2,cdf,5,107,150.0,33.0,68.0,32.5,1.8043643999999404
7,2,cdf,5,108,52.5,12.5,50.5,12.5,2.4759580999998434
7,2,cdf,5,109,112.5,30.0,42.0,31.0,2.5957609000001867
7,2,cdf,5,110,60.0,13.0,50.5,13.0,1.4033644999999524
7,2,cdf,5,111,82.5,18.5,54.0,18.5,1.5685442000003604
7,2,cdf,5,112,75.0,16.0,42.0,16.0,1.521465199999966
7,2,cdf,5,113,15.0,8.0,42.0,5.5,2.0868940000000293
7,2,cdf,5,114,135.0,32.0,50.5,32.0,1.9353492000000188
7,2,cdf,5,115,22.5,10.0,42.0,10.0,1.5562392000001637
7,2,cdf,6,116,112.5,30.0,42.0,30.0,1.0047902999999678
7,2,cdf,6,117,150.0,33.0,74.5,34.0,1.7214265000002342
7,2,cdf,6,118,60.0,13.0,42.0,13.0,1.839739500000178
7,2,cdf,6,119,82.5,18.5,42.0,18.5,1.9690264000000752
7,2,cdf,6,120,45.0,12.0,48.5,11.5,1.6511822000002212
7,2,cdf,6,121,22.5,10.0,42.0,8.0,1.921711100000266
7,2,cdf,6,122,165.0,36.0,42.0,34.0,1.568189999999959
7,2,cdf,6,123,97.5,25.5,42.0,25.5,1.709672099999807
7,2,cdf,6,124,67.5,14.0,42.0,13.0,1.6036020999999892
7,2,cdf,6,125,105.0,28.0,42.0,30.0,2.453453499999796
7,2,cdf,6,126,75.0,16.0,42.0,16.0,1.333119599999918
7,2,cdf,6,127,15.0,8.0,42.0,10.0,1.2617371000001183
7,2,cdf,6,128,135.0,32.0,42.0,32.5,1.3088880999998764
7,2,cdf,6,129,172.5,38.5,42.0,38.5,1.214563100000305
7,2,cdf,6,130,30.0,11.0,42.0,10.0,2.181556300000011
7,2,cdf,6,131,7.5,5.5,42.0,5.5,0.9433567000000948
7,2,cdf,6,132,52.5,12.5,42.0,12.0,1.9456365999999432
7,2,cdf,6,133,37.5,11.5,42.0,11.0,2.712740699999813
7,2,cdf,6,134,127.5,31.5,57.0,32.0,1.1086990000003425
7,2,cdf,6,135,142.5,32.5,70.5,32.5,1.3802362999999789
7,2,cdf,6,136,157.5,34.0,54.5,34.0,2.0050563999998303
7,2,cdf,6,137,120.0,31.0,69.0,32.0,2.2637371000000712
7,2,cdf,6,138,90.0,22.0,42.0,22.0,1.0966201000001092
