subject,session,run,trial_nr,n1,n2,p1,p2,choice,rt
02,3t2,1,1,5.0,5.0,0.55,1.0,True,1.096017316826174
02,3t2,1,2,7.0,7.0,0.55,1.0,True,1.3246269050271169
02,3t2,1,3,37.0,20.0,0.55,1.0,True,1.224786048419226
02,3t2,1,4,47.0,20.0,0.55,1.0,False,1.1257235810969632
02,3t2,1,5,18.0,10.0,0.55,1.0,True,1.1753744510517663
02,3t2,1,6,18.0,14.0,0.55,1.0,True,1.391700375272194
02,3t2,1,7,32.0,28.0,0.55,1.0,True,0.890794363894841
02,3t2,1,8,13.0,7.0,0.55,1.0,False,0.9242813761245544
02,3t2,1,9,13.0,10.0,0.55,1.0,True,1.0911366382080985
02,3t2,1,10,11.0,5.0,0.55,1.0,False,1.258715745070532
02,3t2,1,11,9.0,7.0,0.55,1.0,False,1.8258411983399585
02,3t2,1,12,14.0,14.0,0.55,1.0,True,0.8579199979749319
02,3t2,1,13,14.0,18.0,1.0,0.55,False,1.9095658106593871
02,3t2,1,14,28.0,32.0,1.0,0.55,False,2.110849806427467
02,3t2,1,15,14.0,33.0,1.0,0.55,True,1.258452967115517
02,3t2,1,16,10.0,14.0,1.0,0.55,True,1.6761578126267975
02,3t2,1,17,14.0,26.0,1.0,0.55,True,0.8913485481368753
02,3t2,1,18,28.0,59.0,1.0,0.55,True,0.8413583571075378
02,3t2,1,19,14.0,20.0,1.0,0.55,False,1.3082834421861662
02,3t2,1,20,28.0,59.0,1.0,0.55,True,1.0085026146707037
02,3t2,1,21,7.0,13.0,1.0,0.55,False,2.1938020564784892
02,3t2,1,22,5.0,9.0,1.0,0.55,True,1.6595841177243074
02,3t2,1,23,7.0,11.0,1.0,0.55,True,1.8097819093651992
02,3t2,1,24,5.0,5.0,1.0,0.55,False,1.291671475724172
02,3t2,2,25,52.0,28.0,0.55,1.0,False,1.9141285641142076
02,3t2,2,26,23.0,14.0,0.55,1.0,False,2.3272706561704126
02,3t2,2,27,11.0,7.0,0.55,1.0,True,1.8099985806375116
02,3t2,2,28,33.0,20.0,0.55,1.0,True,1.5919061376430363
02,3t2,2,29,42.0,20.0,0.55,1.0,True,1.1247466015911414
02,3t2,2,30,10.0,5.0,0.55,1.0,False,1.1915443357941058
02,3t2,2,31,16.0,14.0,0.55,1.0,False,1.6753348234128538
02,3t2,2,32,33.0,14.0,0.55,1.0,True,2.27716173290014
02,3t2,2,33,10.0,5.0,0.55,1.0,False,1.1412829289856743
02,3t2,2,34,37.0,20.0,0.55,1.0,True,1.3250813421325631
02,3t2,2,35,23.0,20.0,0.55,1.0,True,2.1762492726143137
02,3t2,2,36,9.0,7.0,0.55,1.0,True,1.308186407207586
02,3t2,2,37,5.0,6.0,1.0,0.55,False,1.0241707502218276
02,3t2,2,38,7.0,10.0,1.0,0.55,True,1.0410222906220667
02,3t2,2,39,14.0,16.0,1.0,0.55,True,1.5085621314667603
02,3t2,2,40,28.0,52.0,1.0,0.55,True,1.091739339939096
02,3t2,2,41,5.0,9.0,1.0,0.55,False,1.776276816083481
02,3t2,2,42,20.0,29.0,1.0,0.55,False,1.358405624894658
02,3t2,2,43,10.0,13.0,1.0,0.55,True,1.274244656521887
02,3t2,2,44,7.0,9.0,1.0,0.55,False,1.2595525964241006
02,3t2,2,45,10.0,21.0,1.0,0.55,True,0.8409690117891842
02,3t2,2,46,14.0,23.0,1.0,0.55,False,1.7929038500888623
02,3t2,2,47,5.0,10.0,1.0,0.55,True,1.5093010437889802
02,3t2,2,48,7.0,11.0,1.0,0.55,False,1.3758182806063814
02,3t2,3,49,29.0,28.0,0.55,1.0,True,0.9127800189912704
02,3t2,3,50,66.0,28.0,0.55,1.0,True,1.2256681024023235
02,3t2,3,51,42.0,20.0,0.55,1.0,False,1.0927365099528217
02,3t2,3,52,20.0,20.0,0.55,1.0,True,1.308646569979402
02,3t2,3,53,5.0,5.0,0.55,1.0,True,1.2251277803011362
02,3t2,3,54,14.0,10.0,0.55,1.0,True,1.0410370568147158
02,3t2,3,55,59.0,28.0,0.55,1.0,False,1.1263163382495804
02,3t2,3,56,11.0,5.0,0.55,1.0,True,1.5247253864899903
02,3t2,3,57,8.0,7.0,0.55,1.0,True,1.2077958866211702
02,3t2,3,58,26.0,20.0,0.55,1.0,False,0.9570237503653232
02,3t2,3,59,11.0,10.0,0.55,1.0,True,1.4592403366573592
02,3t2,3,60,5.0,5.0,0.55,1.0,True,0.9085180136999044
02,3t2,3,61,5.0,5.0,1.0,0.55,False,1.0911486922423137
02,3t2,3,62,5.0,8.0,1.0,0.55,True,2.2266746142936427
02,3t2,3,63,5.0,6.0,1.0,0.55,False,1.4925839058746817
02,3t2,3,64,14.0,14.0,1.0,0.55,True,2.0432435478519437
02,3t2,3,65,10.0,23.0,1.0,0.55,True,0.8744310118968315
02,3t2,3,66,28.0,52.0,1.0,0.55,False,1.075097841092429
02,3t2,3,67,14.0,18.0,1.0,0.55,False,1.8927344607673149
02,3t2,3,68,7.0,7.0,1.0,0.55,False,1.1915633208986949
02,3t2,3,69,14.0,29.0,1.0,0.55,True,0.9908802187569564
02,3t2,3,70,28.0,46.0,1.0,0.55,True,0.908375776091816
02,3t2,3,71,14.0,16.0,1.0,0.55,False,1.0580585591028466
02,3t2,3,72,7.0,13.0,1.0,0.55,False,1.4083415727681654
02,3t2,4,73,7.0,16.0,1.0,0.55,True,1.1784361758454942
02,3t2,4,74,20.0,47.0,1.0,0.55,True,0.8408318971455628
02,3t2,4,75,7.0,8.0,1.0,0.55,True,1.6920826991154172
02,3t2,4,76,7.0,14.0,1.0,0.55,True,3.445835948808053
02,3t2,4,77,10.0,10.0,1.0,0.55,False,0.8918692824327223
02,3t2,4,78,20.0,42.0,1.0,0.55,True,1.1245443951602423
02,3t2,4,79,14.0,23.0,1.0,0.55,True,2.1598847152126837
02,3t2,4,80,28.0,37.0,1.0,0.55,False,0.9907425014107644
02,3t2,4,81,14.0,20.0,1.0,0.55,False,0.8575207080784821
02,3t2,4,82,28.0,29.0,1.0,0.55,False,1.3251835000760934
02,3t2,4,83,14.0,26.0,1.0,0.55,False,1.8095191314100416
02,3t2,4,84,7.0,7.0,1.0,0.55,False,1.0079014196940363
02,3t2,4,85,29.0,20.0,0.55,1.0,True,1.2914300936809298
02,3t2,4,86,26.0,20.0,0.55,1.0,True,2.4275029675527264
02,3t2,4,87,46.0,28.0,0.55,1.0,True,1.174794651986332
02,3t2,4,88,10.0,7.0,0.55,1.0,True,1.1252926493594089
02,3t2,4,89,16.0,10.0,0.55,1.0,True,1.7259840687847827
02,3t2,4,90,7.0,5.0,0.55,1.0,True,1.793179284779853
02,3t2,4,91,37.0,28.0,0.55,1.0,True,1.0747368227557672
02,3t2,4,92,20.0,14.0,0.55,1.0,True,1.4090910323707249
02,3t2,4,93,16.0,7.0,0.55,1.0,False,0.9073855371470928
02,3t2,4,94,41.0,28.0,0.55,1.0,True,1.3248836559645838
02,3t2,4,95,46.0,28.0,0.55,1.0,False,1.5087031636717256
02,3t2,4,96,6.0,5.0,0.55,1.0,False,1.5753643859329711
02,3t2,5,97,9.0,5.0,0.55,1.0,True,1.746574168023017
02,3t2,5,98,37.0,28.0,0.55,1.0,True,1.258418613117108
02,3t2,5,99,20.0,14.0,0.55,1.0,False,1.0087162724344123
02,3t2,5,100,29.0,28.0,0.55,1.0,True,0.9748118892557472
02,3t2,5,101,26.0,14.0,0.55,1.0,True,1.359015559046398
02,3t2,5,102,66.0,28.0,0.55,1.0,False,1.1919210243759153
02,3t2,5,103,32.0,28.0,0.55,1.0,True,0.9913798584916692
02,3t2,5,104,26.0,14.0,0.55,1.0,True,1.3919013762997707
02,3t2,5,105,14.0,7.0,0.55,1.0,False,1.074720549808262
02,3t2,5,106,10.0,10.0,0.55,1.0,True,0.8247451852416816
02,3t2,5,107,20.0,20.0,0.55,1.0,True,0.9083040545856136
02,3t2,5,108,33.0,20.0,0.55,1.0,True,1.775738302086694
02,3t2,5,109,5.0,8.0,1.0,0.55,True,1.3248438776504372
02,3t2,5,110,10.0,14.0,1.0,0.55,True,1.0410379608669589
02,3t2,5,111,10.0,16.0,1.0,0.55,True,1.1123933255603902
02,3t2,5,112,5.0,10.0,1.0,0.55,False,1.108084610885271
02,3t2,5,113,20.0,37.0,1.0,0.55,True,0.9409105195859696
02,3t2,5,114,20.0,26.0,1.0,0.55,False,1.4589525465808038
02,3t2,5,115,7.0,16.0,1.0,0.55,True,1.24141278107345
02,3t2,5,116,28.0,66.0,1.0,0.55,True,0.8416027526591279
02,3t2,5,117,28.0,41.0,1.0,0.55,False,1.5421805326741378
02,3t2,5,118,14.0,33.0,1.0,0.55,False,1.5592731537662985
02,3t2,5,119,10.0,13.0,1.0,0.55,True,1.609030099226004
02,3t2,5,120,10.0,18.0,1.0,0.55,True,1.5922068858071723
02,3t2,6,121,21.0,10.0,0.55,1.0,True,1.0956746808919888
02,3t2,6,122,11.0,7.0,0.55,1.0,True,1.158051899248676
02,3t2,6,123,10.0,7.0,0.55,1.0,True,1.0577376204309985
02,3t2,6,124,41.0,28.0,0.55,1.0,False,1.1259077064755587
02,3t2,6,125,23.0,20.0,0.55,1.0,True,1.508819485105505
02,3t2,6,126,7.0,7.0,0.55,1.0,True,0.7569626364101936
02,3t2,6,127,10.0,10.0,0.55,1.0,True,0.790893237113778
02,3t2,6,128,29.0,14.0,0.55,1.0,False,1.20796042419353
02,3t2,6,129,23.0,10.0,0.55,1.0,False,1.1584891593547582
02,3t2,6,130,14.0,7.0,0.55,1.0,False,1.7757437264021974
02,3t2,6,131,14.0,14.0,0.55,1.0,True,1.4755726495158967
02,3t2,6,132,7.0,5.0,0.55,1.0,True,1.4920863755960738
02,3t2,6,133,20.0,23.0,1.0,0.55,True,1.124482919583386
02,3t2,6,134,7.0,10.0,1.0,0.55,False,1.5086787542518607
02,3t2,6,135,10.0,10.0,1.0,0.55,True,1.676005329088582
02,3t2,6,136,20.0,20.0,1.0,0.55,False,1.241169892276048
02,3t2,6,137,20.0,37.0,1.0,0.55,True,0.773823217336087
02,3t2,6,138,7.0,9.0,1.0,0.55,False,1.2415631551557451
02,3t2,6,139,20.0,47.0,1.0,0.55,True,1.3253579822271604
02,3t2,6,140,14.0,14.0,1.0,0.55,False,1.1917055585067828
02,3t2,6,141,28.0,66.0,1.0,0.55,True,1.0752415854554442
02,3t2,6,142,10.0,11.0,1.0,0.55,False,1.5425756036584062
02,3t2,6,143,20.0,33.0,1.0,0.55,True,2.527423983490678
02,3t2,6,144,5.0,5.0,1.0,0.55,False,0.958194498478406
02,3t2,7,145,47.0,20.0,0.55,1.0,False,1.228845545928838
02,3t2,7,146,29.0,20.0,0.55,1.0,True,1.5434154685208483
02,3t2,7,147,18.0,14.0,0.55,1.0,True,1.525140045281205
02,3t2,7,148,13.0,7.0,0.55,1.0,False,0.9915148636796404
02,3t2,7,149,16.0,14.0,0.55,1.0,True,1.0078474778892996
02,3t2,7,150,23.0,14.0,0.55,1.0,True,1.0580570523489286
02,3t2,7,151,16.0,7.0,0.55,1.0,False,1.0078489846436725
02,3t2,7,152,13.0,10.0,0.55,1.0,True,1.074493029905156
02,3t2,7,153,9.0,5.0,0.55,1.0,False,1.72594248236598
02,3t2,7,154,14.0,10.0,0.55,1.0,True,1.7592526016373995
02,3t2,7,155,8.0,5.0,0.55,1.0,False,1.2580410204823238
02,3t2,7,156,8.0,5.0,0.55,1.0,True,2.2938246276585517
02,3t2,7,157,28.0,46.0,1.0,0.55,False,1.0413769805909112
02,3t2,7,158,28.0,32.0,1.0,0.55,False,1.4085365467785778
02,3t2,7,159,5.0,11.0,1.0,0.55,True,1.224919546852533
02,3t2,7,160,5.0,5.0,1.0,0.55,False,1.242337325529178
02,3t2,7,161,20.0,23.0,1.0,0.55,True,1.6090282911204667
02,3t2,7,162,5.0,7.0,1.0,0.55,True,1.1245392721953067
02,3t2,7,163,20.0,33.0,1.0,0.55,True,2.0769511489156685
02,3t2,7,164,28.0,29.0,1.0,0.55,False,1.1083494982958657
02,3t2,7,165,5.0,11.0,1.0,0.55,True,0.62422420986519
02,3t2,7,166,7.0,8.0,1.0,0.55,False,0.8916706922118465
02,3t2,7,167,20.0,20.0,1.0,0.55,True,2.2109453045168266
02,3t2,7,168,10.0,23.0,1.0,0.55,True,1.6261007217044607
02,3t2,8,169,20.0,26.0,1.0,0.55,False,1.613776978059832
02,3t2,8,170,10.0,21.0,1.0,0.55,True,1.209201387057881
02,3t2,8,171,10.0,18.0,1.0,0.55,True,0.9579913879942978
02,3t2,8,172,28.0,37.0,1.0,0.55,True,1.341600492527519
02,3t2,8,173,5.0,7.0,1.0,0.55,False,1.224913218484275
02,3t2,8,174,14.0,29.0,1.0,0.55,True,0.9235596408016136
02,3t2,8,175,10.0,16.0,1.0,0.55,True,1.592711949857403
02,3t2,8,176,20.0,42.0,1.0,0.55,True,0.774193577550264
02,3t2,8,177,10.0,11.0,1.0,0.55,False,1.0743595314716003
02,3t2,8,178,7.0,14.0,1.0,0.55,True,1.358318835845239
02,3t2,8,179,20.0,29.0,1.0,0.55,False,1.3584128573156136
02,3t2,8,180,28.0,41.0,1.0,0.55,False,0.9575366495392076
02,3t2,8,181,18.0,10.0,0.55,1.0,False,0.9911249156594124
02,3t2,8,182,23.0,10.0,0.55,1.0,False,1.3923235688616842
02,3t2,8,183,8.0,7.0,0.55,1.0,True,0.8239716175703791
02,3t2,8,184,33.0,14.0,0.55,1.0,True,2.26110636148681
02,3t2,8,185,5.0,5.0,0.55,1.0,True,2.477097183545027
02,3t2,8,186,29.0,14.0,0.55,1.0,True,1.2752445386932436
02,3t2,8,187,59.0,28.0,0.55,1.0,False,1.2413558257603654
02,3t2,8,188,21.0,10.0,0.55,1.0,False,2.243462569660551
02,3t2,8,189,6.0,5.0,0.55,1.0,True,1.2253438488714892
02,3t2,8,190,16.0,10.0,0.55,1.0,False,1.7263330330879398
02,3t2,8,191,52.0,28.0,0.55,1.0,False,1.6757805213437678
02,3t2,8,192,11.0,10.0,0.55,1.0,True,1.1078281612980732
02,7t2,1,1,19.0,10.0,0.55,1.0,True,1.5441928000072984
02,7t2,1,2,98.0,28.0,0.55,1.0,False,0.8904331999947388
02,7t2,1,3,52.0,20.0,0.55,1.0,False,1.7077154000289596
02,7t2,1,4,66.0,28.0,0.55,1.0,False,0.6897622999968007
02,7t2,1,5,17.0,10.0,0.55,1.0,False,1.3069451000192205
02,7t2,1,6,24.0,7.0,0.55,1.0,False,0.7748586999951073
02,7t2,1,7,13.0,5.0,0.55,1.0,False,1.224684500019109
02,7t2,1,8,98.0,28.0,0.55,1.0,False,0.7236778999795206
02,7t2,1,9,54.0,28.0,0.55,1.0,True,0.9247814000118524
02,7t2,1,10,42.0,20.0,0.55,1.0,True,1.141773500014125
02,7t2,1,11,60.0,28.0,0.55,1.0,False,0.9256698000244796
02,7t2,1,12,66.0,28.0,0.55,1.0,False,0.8902710999827832
02,7t2,1,13,10.0,28.0,1.0,0.55,True,0.9255367000005776
02,7t2,1,14,7.0,24.0,1.0,0.55,True,1.1586788000422814
02,7t2,1,15,7.0,12.0,1.0,0.55,True,1.5581037999945693
02,7t2,1,16,5.0,9.0,1.0,0.55,False,1.1253642999799922
02,7t2,1,17,5.0,13.0,1.0,0.55,True,1.2246115000452846
02,7t2,1,18,5.0,8.0,1.0,0.55,False,1.574624600005336
02,7t2,1,19,28.0,60.0,1.0,0.55,False,1.2060591999907049
02,7t2,1,20,20.0,70.0,1.0,0.55,True,0.854624799976591
02,7t2,1,21,7.0,13.0,1.0,0.55,False,1.708311499969625
02,7t2,1,22,5.0,10.0,1.0,0.55,True,1.491633300029207
02,7t2,1,23,10.0,31.0,1.0,0.55,True,0.9593069999828004
02,7t2,1,24,5.0,14.0,1.0,0.55,True,1.6412032000371255
02,7t2,2,25,7.0,15.0,1.0,0.55,True,0.8437538999714818
02,7t2,2,26,28.0,98.0,1.0,0.55,True,1.8453335000085644
02,7t2,2,27,20.0,35.0,1.0,0.55,False,1.3241735000047117
02,7t2,2,28,20.0,63.0,1.0,0.55,True,1.0224715000367866
02,7t2,2,29,7.0,15.0,1.0,0.55,False,2.192218700016383
02,7t2,2,30,7.0,16.0,1.0,0.55,True,1.6575739000109024
02,7t2,2,31,20.0,47.0,1.0,0.55,True,0.9242301999474876
02,7t2,2,32,28.0,80.0,1.0,0.55,True,0.8998988000093959
02,7t2,2,33,14.0,27.0,1.0,0.55,True,1.1580196000286378
02,7t2,2,34,20.0,57.0,1.0,0.55,True,0.874872799962759
02,7t2,2,35,5.0,15.0,1.0,0.55,True,0.9758334000362084
02,7t2,2,36,14.0,36.0,1.0,0.55,True,1.6079879999742843
02,7t2,2,37,52.0,20.0,0.55,1.0,True,1.3240537999663218
02,7t2,2,38,30.0,14.0,0.55,1.0,True,1.5914764999761246
02,7t2,2,39,17.0,5.0,0.55,1.0,True,1.3733373999712055
02,7t2,2,40,15.0,7.0,0.55,1.0,True,1.9573260000325376
02,7t2,2,41,20.0,7.0,0.55,1.0,False,1.1084886000026015
02,7t2,2,42,70.0,20.0,0.55,1.0,False,1.0587710000108927
02,7t2,2,43,10.0,5.0,0.55,1.0,False,1.290773899992928
02,7t2,2,44,21.0,10.0,0.55,1.0,False,1.2914514000294162
02,7t2,2,45,18.0,7.0,0.55,1.0,False,0.942649299977404
02,7t2,2,46,21.0,10.0,0.55,1.0,False,1.357523399987258
02,7t2,2,47,33.0,14.0,0.55,1.0,False,1.2408959000023287
02,7t2,2,48,10.0,5.0,0.55,1.0,False,1.2093821999732768
02,7t2,3,49,33.0,14.0,0.55,1.0,False,1.5489878000225872
02,7t2,3,50,8.0,5.0,0.55,1.0,True,0.9579082999844104
02,7t2,3,51,31.0,10.0,0.55,1.0,True,1.0087244999594702
02,7t2,3,52,26.0,10.0,0.55,1.0,False,1.6917538000270582
02,7t2,3,53,13.0,5.0,0.55,1.0,False,1.1745319999754429
02,7t2,3,54,24.0,14.0,0.55,1.0,True,1.757229199982234
02,7t2,3,55,54.0,28.0,0.55,1.0,False,0.9074028999893926
02,7t2,3,56,80.0,28.0,0.55,1.0,False,0.890153399959658
02,7t2,3,57,40.0,14.0,0.55,1.0,False,1.207338500011332
02,7t2,3,58,35.0,20.0,0.55,1.0,True,1.0577850000117903
02,7t2,3,59,14.0,5.0,0.55,1.0,True,1.2403858000179468
02,7t2,3,60,22.0,7.0,0.55,1.0,False,1.0248650999856466
02,7t2,3,61,14.0,40.0,1.0,0.55,True,1.4428287000047249
02,7t2,3,62,7.0,24.0,1.0,0.55,False,1.757099099981161
02,7t2,3,63,20.0,52.0,1.0,0.55,True,0.8393644000170752
02,7t2,3,64,14.0,44.0,1.0,0.55,True,0.925739799975446
02,7t2,3,65,28.0,98.0,1.0,0.55,True,0.8943302999832667
02,7t2,3,66,14.0,49.0,1.0,0.55,True,1.0261564999818802
02,7t2,3,67,28.0,54.0,1.0,0.55,True,0.9902817999827676
02,7t2,3,68,10.0,28.0,1.0,0.55,True,1.175503199978266
02,7t2,3,69,20.0,35.0,1.0,0.55,True,1.440444900014029
02,7t2,3,70,10.0,31.0,1.0,0.55,True,0.857431299984512
02,7t2,3,71,10.0,17.0,1.0,0.55,True,1.442093499994371
02,7t2,3,72,14.0,33.0,1.0,0.55,True,0.8912482000305317
02,7t2,4,73,7.0,20.0,1.0,0.55,True,0.6438498999923468
02,7t2,4,74,10.0,17.0,1.0,0.55,False,1.5754490999970585
02,7t2,4,75,28.0,54.0,1.0,0.55,True,1.1069802999845706
02,7t2,4,76,7.0,18.0,1.0,0.55,False,1.0729696000344262
02,7t2,4,77,7.0,22.0,1.0,0.55,True,1.2575182000291392
02,7t2,4,78,5.0,13.0,1.0,0.55,True,0.674522600020282
02,7t2,4,79,10.0,23.0,1.0,0.55,True,1.2429336999775558
02,7t2,4,80,20.0,47.0,1.0,0.55,True,0.8732853999826915
02,7t2,4,81,7.0,22.0,1.0,0.55,True,0.9239912999910302
02,7t2,4,82,20.0,63.0,1.0,0.55,True,0.8043346999911876
02,7t2,4,83,10.0,23.0,1.0,0.55,False,0.9090802000137046
02,7t2,4,84,10.0,26.0,1.0,0.55,True,1.3586383999790996
02,7t2,4,85,19.0,10.0,0.55,1.0,False,1.2239447000320354
02,7t2,4,86,14.0,5.0,0.55,1.0,False,0.8087205999764251
02,7t2,4,87,49.0,14.0,0.55,1.0,False,0.4915863999631256
02,7t2,4,88,9.0,5.0,0.55,1.0,True,1.6588545000413717
02,7t2,4,89,80.0,28.0,0.55,1.0,False,1.1253265999839923
02,7t2,4,90,27.0,14.0,0.55,1.0,True,1.7397240999853238
02,7t2,4,91,38.0,20.0,0.55,1.0,True,1.2076403999817558
02,7t2,4,92,38.0,20.0,0.55,1.0,False,
02,7t2,4,93,44.0,14.0,0.55,1.0,False,0.4915763000026345
02,7t2,4,94,22.0,7.0,0.55,1.0,False,1.1239580000401477
02,7t2,4,95,13.0,7.0,0.55,1.0,False,0.8753211000002921
02,7t2,4,96,60.0,28.0,0.55,1.0,False,0.908506599953398
02,7t2,5,97,14.0,24.0,1.0,0.55,True,1.251197699981276
02,7t2,5,98,28.0,66.0,1.0,0.55,True,1.0712734999833629
02,7t2,5,99,5.0,14.0,1.0,0.55,True,0.5753486000467092
02,7t2,5,100,7.0,16.0,1.0,0.55,True,1.140743300027694
02,7t2,5,101,20.0,70.0,1.0,0.55,True,0.6053926000022471
02,7t2,5,102,10.0,21.0,1.0,0.55,True,0.9245923999697254
02,7t2,5,103,5.0,17.0,1.0,0.55,True,0.7586279999813996
02,7t2,5,104,28.0,89.0,1.0,0.55,True,0.5642236000276171
02,7t2,5,105,5.0,10.0,1.0,0.55,False,0.8921477000112645
02,7t2,5,106,20.0,42.0,1.0,0.55,True,0.990266799984994
02,7t2,5,107,7.0,20.0,1.0,0.55,True,0.9421159999911026
02,7t2,5,108,28.0,80.0,1.0,0.55,True,0.6973205000394955
02,7t2,5,109,15.0,5.0,0.55,1.0,False,0.8904843999771117
02,7t2,5,110,57.0,20.0,0.55,1.0,True,1.4251635000109673
02,7t2,5,111,47.0,20.0,0.55,1.0,True,1.0248479000292434
02,7t2,5,112,49.0,28.0,0.55,1.0,True,1.3737357999781068
02,7t2,5,113,42.0,20.0,0.55,1.0,True,1.5906123999739066
02,7t2,5,114,13.0,7.0,0.55,1.0,False,0.8905690999818034
02,7t2,5,115,15.0,7.0,0.55,1.0,False,0.9920641999924557
02,7t2,5,116,27.0,14.0,0.55,1.0,True,0.8422985000069616
02,7t2,5,117,40.0,14.0,0.55,1.0,False,0.8569018999696709
02,7t2,5,118,35.0,10.0,0.55,1.0,False,1.4253376999986926
02,7t2,5,119,26.0,10.0,0.55,1.0,False,0.9753886000252692
02,7t2,5,120,49.0,28.0,0.55,1.0,False,1.1074253999977373
02,7t2,6,121,89.0,28.0,0.55,1.0,False,0.9112550999852828
02,7t2,6,122,20.0,7.0,0.55,1.0,False,0.7092709999997169
02,7t2,6,123,8.0,5.0,0.55,1.0,True,0.6752070999937132
02,7t2,6,124,49.0,14.0,0.55,1.0,False,1.3919772999943234
02,7t2,6,125,36.0,14.0,0.55,1.0,False,1.2575585999875187
02,7t2,6,126,16.0,7.0,0.55,1.0,False,1.3589802000205964
02,7t2,6,127,31.0,10.0,0.55,1.0,False,0.8401831000228412
02,7t2,6,128,36.0,14.0,0.55,1.0,False,0.8919467999949262
02,7t2,6,129,16.0,7.0,0.55,1.0,False,1.2900311999837868
02,7t2,6,130,28.0,10.0,0.55,1.0,False,0.7244900000514463
02,7t2,6,131,57.0,20.0,0.55,1.0,False,0.557513399980877
02,7t2,6,132,24.0,14.0,0.55,1.0,True,0.974782100005541
02,7t2,6,133,20.0,38.0,1.0,0.55,True,1.2581517999642529
02,7t2,6,134,14.0,49.0,1.0,0.55,True,1.0586273000226356
02,7t2,6,135,28.0,66.0,1.0,0.55,True,0.8870846999925561
02,7t2,6,136,28.0,73.0,1.0,0.55,True,0.6193938000361356
02,7t2,6,137,14.0,33.0,1.0,0.55,True,1.4077608999796212
02,7t2,6,138,28.0,89.0,1.0,0.55,True,1.2650871999794615
02,7t2,6,139,28.0,73.0,1.0,0.55,True,0.5198136999970302
02,7t2,6,140,14.0,30.0,1.0,0.55,True,0.8578994999988936
02,7t2,6,141,7.0,13.0,1.0,0.55,True,1.2250692000379786
02,7t2,6,142,20.0,52.0,1.0,0.55,True,0.6412112999823876
02,7t2,6,143,5.0,9.0,1.0,0.55,True,1.456771800003537
02,7t2,6,144,7.0,18.0,1.0,0.55,True,1.223875700030476
02,7t2,7,145,17.0,5.0,0.55,1.0,False,0.8584920999710519
02,7t2,7,146,12.0,7.0,0.55,1.0,True,0.8753504999913275
02,7t2,7,147,15.0,5.0,0.55,1.0,False,0.8750920000020415
02,7t2,7,148,18.0,7.0,0.55,1.0,False,0.8405564000131562
02,7t2,7,149,24.0,7.0,0.55,1.0,False,0.8232312999898426
02,7t2,7,150,89.0,28.0,0.55,1.0,False,0.5412406999967345
02,7t2,7,151,30.0,14.0,0.55,1.0,False,0.8258372999844141
02,7t2,7,152,47.0,20.0,0.55,1.0,False,0.7238240999867998
02,7t2,7,153,70.0,20.0,0.55,1.0,False,0.7250264000030882
02,7t2,7,154,23.0,10.0,0.55,1.0,False,0.9405739000066832
02,7t2,7,155,73.0,28.0,0.55,1.0,False,0.9905615999595908
02,7t2,7,156,9.0,5.0,0.55,1.0,False,0.8238604000071348
02,7t2,7,157,28.0,60.0,1.0,0.55,False,1.1703442999860556
02,7t2,7,158,10.0,19.0,1.0,0.55,False,1.823891900014104
02,7t2,7,159,14.0,44.0,1.0,0.55,True,0.9591903000254832
02,7t2,7,160,10.0,21.0,1.0,0.55,False,1.173812499968335
02,7t2,7,161,5.0,11.0,1.0,0.55,True,1.541732299956493
02,7t2,7,162,5.0,8.0,1.0,0.55,False,1.4239357999758795
02,7t2,7,163,14.0,36.0,1.0,0.55,True,0.6228729999857023
02,7t2,7,164,14.0,24.0,1.0,0.55,False,2.0411509999539135
02,7t2,7,165,20.0,38.0,1.0,0.55,True,0.709713299991563
02,7t2,7,166,20.0,42.0,1.0,0.55,False,1.7577961000497453
02,7t2,7,167,28.0,49.0,1.0,0.55,False,0.5573407000046586
02,7t2,7,168,20.0,57.0,1.0,0.55,True,0.9067330000106608
02,7t2,8,169,12.0,7.0,0.55,1.0,False,0.8757101999944972
02,7t2,8,170,17.0,10.0,0.55,1.0,True,1.2758358999854025
02,7t2,8,171,11.0,5.0,0.55,1.0,True,1.7072886999812908
02,7t2,8,172,73.0,28.0,0.55,1.0,False,0.7923410999937914
02,7t2,8,173,35.0,20.0,0.55,1.0,False,0.6578393999952823
02,7t2,8,174,63.0,20.0,0.55,1.0,False,0.4590143999667049
02,7t2,8,175,35.0,10.0,0.55,1.0,False,0.8253904999583028
02,7t2,8,176,28.0,10.0,0.55,1.0,False,0.8250658999895677
02,7t2,8,177,11.0,5.0,0.55,1.0,False,1.8077118000364576
02,7t2,8,178,23.0,10.0,0.55,1.0,True,2.496786899981089
02,7t2,8,179,63.0,20.0,0.55,1.0,False,0.5050075000035008
02,7t2,8,180,44.0,14.0,0.55,1.0,False,0.7258856000262028
02,7t2,8,181,5.0,15.0,1.0,0.55,True,0.5594406999879595
02,7t2,8,182,28.0,49.0,1.0,0.55,False,1.908593899977859
02,7t2,8,183,14.0,40.0,1.0,0.55,True,0.457612400001409
02,7t2,8,184,5.0,11.0,1.0,0.55,True,1.007737700012541
02,7t2,8,185,7.0,12.0,1.0,0.55,False,1.3412772999727167
02,7t2,8,186,10.0,26.0,1.0,0.55,True,0.5243489000131376
02,7t2,8,187,5.0,17.0,1.0,0.55,True,0.3397606000070823
02,7t2,8,188,10.0,35.0,1.0,0.55,True,0.8900086000213037
02,7t2,8,189,14.0,27.0,1.0,0.55,False,1.075340799987316
02,7t2,8,190,14.0,30.0,1.0,0.55,True,0.841502399998717
02,7t2,8,191,10.0,19.0,1.0,0.55,False,1.2411010999931025
02,7t2,8,192,10.0,35.0,1.0,0.55,True,0.4730980999883627
03,3t2,1,1,10.0,13.0,1.0,0.55,False,0.9109954191662836
03,3t2,1,2,5.0,11.0,1.0,0.55,False,1.2410870207877591
03,3t2,1,3,20.0,45.0,1.0,0.55,False,0.8906231966029594
03,3t2,1,4,5.0,20.0,1.0,0.55,False,0.3558622235887014
03,3t2,1,5,7.0,11.0,1.0,0.55,False,1.1745900347486895
03,3t2,1,6,5.0,13.0,1.0,0.55,False,0.8736294185946321
03,3t2,1,7,14.0,22.0,1.0,0.55,False,0.9406760686124472
03,3t2,1,8,14.0,38.0,1.0,0.55,False,0.8571446221976373
03,3t2,1,9,28.0,30.0,1.0,0.55,False,0.9072454089946688
03,3t2,1,10,10.0,13.0,1.0,0.55,False,0.77349474489165
03,3t2,1,11,7.0,11.0,1.0,0.55,False,0.9238712375972682
03,3t2,1,12,10.0,15.0,1.0,0.55,False,0.823715469334303
03,3t2,1,13,13.0,10.0,0.55,1.0,True,0.8080054460133113
03,3t2,1,14,77.0,28.0,0.55,1.0,True,0.3227311067330731
03,3t2,1,15,55.0,20.0,0.55,1.0,True,0.8739226329872452
03,3t2,1,16,19.0,7.0,0.55,1.0,True,0.9742203375081148
03,3t2,1,17,6.0,5.0,0.55,1.0,True,0.857376361014758
03,3t2,1,18,93.0,28.0,0.55,1.0,True,0.9740347053720484
03,3t2,1,19,30.0,28.0,0.55,1.0,True,0.3228640024626656
03,3t2,1,20,38.0,20.0,0.55,1.0,True,0.8574140298715065
03,3t2,1,21,112.0,28.0,0.55,1.0,True,0.9238929348593956
03,3t2,1,22,13.0,10.0,0.55,1.0,True,0.7237212251348524
03,3t2,1,23,9.0,5.0,0.55,1.0,True,0.9741223984765952
03,3t2,1,24,15.0,10.0,0.55,1.0,True,0.9240062427851968
03,3t2,2,25,46.0,14.0,0.55,1.0,True,0.9615521498217348
03,3t2,2,26,13.0,7.0,0.55,1.0,True,0.8603503927060814
03,3t2,2,27,16.0,7.0,0.55,1.0,True,1.4919631230914092
03,3t2,2,28,10.0,10.0,0.55,1.0,True,0.6234518475975932
03,3t2,2,29,33.0,10.0,0.55,1.0,True,1.0406856817044172
03,3t2,2,30,66.0,20.0,0.55,1.0,True,0.8569830981341653
03,3t2,2,31,26.0,20.0,0.55,1.0,True,0.8737683413437622
03,3t2,2,32,30.0,28.0,0.55,1.0,True,0.3227500918365251
03,3t2,2,33,13.0,7.0,0.55,1.0,True,0.8738819506197615
03,3t2,2,34,38.0,14.0,0.55,1.0,True,0.6899919268107624
03,3t2,2,35,6.0,5.0,0.55,1.0,True,0.8235961343925737
03,3t2,2,36,21.0,20.0,0.55,1.0,True,0.0224280381662538
03,3t2,2,37,5.0,16.0,1.0,0.55,False,0.8079072056316932
03,3t2,2,38,28.0,64.0,1.0,0.55,False,0.8741733569058283
03,3t2,2,39,20.0,66.0,1.0,0.55,False,0.6236016189777729
03,3t2,2,40,28.0,30.0,1.0,0.55,False,0.7237661264152848
03,3t2,2,41,10.0,40.0,1.0,0.55,False,0.8569267455222302
03,3t2,2,42,5.0,13.0,1.0,0.55,False,1.1410731887845031
03,3t2,2,43,14.0,22.0,1.0,0.55,False,0.874092896225136
03,3t2,2,44,14.0,38.0,1.0,0.55,False,0.8576939848262555
03,3t2,2,45,7.0,16.0,1.0,0.55,False,0.4729195564942188
03,3t2,2,46,28.0,64.0,1.0,0.55,False,1.0078055901194602
03,3t2,2,47,20.0,38.0,1.0,0.55,False,0.6900395402481081
03,3t2,2,48,5.0,7.0,1.0,0.55,False,0.9240987574994506
03,3t2,3,49,14.0,56.0,1.0,0.55,False,0.7613590441869746
03,3t2,3,50,14.0,56.0,1.0,0.55,False,0.7072662624741497
03,3t2,3,51,20.0,31.0,1.0,0.55,False,0.7733968058619212
03,3t2,3,52,7.0,19.0,1.0,0.55,False,0.7736134771330399
03,3t2,3,53,14.0,18.0,1.0,0.55,False,1.708864627466042
03,3t2,3,54,28.0,36.0,1.0,0.55,False,0.8236663491425134
03,3t2,3,55,7.0,13.0,1.0,0.55,False,2.226551361789475
03,3t2,3,56,28.0,112.0,1.0,0.55,False,0.7572914102038482
03,3t2,3,57,14.0,15.0,1.0,0.55,False,0.7901718031407654
03,3t2,3,58,20.0,55.0,1.0,0.55,False,0.8241289227207744
03,3t2,3,59,28.0,93.0,1.0,0.55,False,0.4894139961197652
03,3t2,3,60,7.0,23.0,1.0,0.55,False,0.2059100329042849
03,3t2,3,61,31.0,20.0,0.55,1.0,True,0.3238783494762458
03,3t2,3,62,64.0,28.0,0.55,1.0,True,0.7903276015404117
03,3t2,3,63,13.0,5.0,0.55,1.0,True,0.8739895328799321
03,3t2,3,64,22.0,10.0,0.55,1.0,True,0.673388398172392
03,3t2,3,65,26.0,14.0,0.55,1.0,True,0.807136651466891
03,3t2,3,66,36.0,28.0,0.55,1.0,True,0.8072665336894715
03,3t2,3,67,9.0,7.0,0.55,1.0,False,1.391910718177371
03,3t2,3,68,22.0,10.0,0.55,1.0,True,0.7238348344126848
03,3t2,3,69,11.0,7.0,0.55,1.0,True,0.9240405967830156
03,3t2,3,70,45.0,20.0,0.55,1.0,True,0.8071863743589347
03,3t2,3,71,22.0,14.0,0.55,1.0,True,0.1726252271055273
03,3t2,3,72,46.0,14.0,0.55,1.0,True,0.7070152372035068
03,3t2,4,73,32.0,14.0,0.55,1.0,True,0.6776618547955877
03,3t2,4,74,23.0,7.0,0.55,1.0,True,1.3748406983977477
03,3t2,4,75,55.0,20.0,0.55,1.0,True,0.790094355970723
03,3t2,4,76,56.0,14.0,0.55,1.0,True,0.8065438943140038
03,3t2,4,77,11.0,5.0,0.55,1.0,True,1.808831448735873
03,3t2,4,78,20.0,5.0,0.55,1.0,True,1.024255731164871
03,3t2,4,79,16.0,5.0,0.55,1.0,True,0.205885020783171
03,3t2,4,80,19.0,7.0,0.55,1.0,True,0.4897078132143946
03,3t2,4,81,5.0,5.0,0.55,1.0,False,0.290363311616602
03,3t2,4,82,13.0,5.0,0.55,1.0,True,0.8571964545462833
03,3t2,4,83,36.0,28.0,0.55,1.0,True,0.5067208776800101
03,3t2,4,84,7.0,7.0,0.55,1.0,True,0.6566332900492853
03,3t2,4,85,10.0,33.0,1.0,0.55,False,0.573142224649871
03,3t2,4,86,28.0,53.0,1.0,0.55,False,0.5939131344075577
03,3t2,4,87,20.0,80.0,1.0,0.55,False,1.058095022557609
03,3t2,4,88,10.0,19.0,1.0,0.55,False,0.4064575271569026
03,3t2,4,89,10.0,15.0,1.0,0.55,False,1.2078673067753698
03,3t2,4,90,14.0,32.0,1.0,0.55,False,0.3558926600271093
03,3t2,4,91,7.0,19.0,1.0,0.55,False,0.1887188700802653
03,3t2,4,92,5.0,5.0,1.0,0.55,False,0.5564995204003935
03,3t2,4,93,7.0,7.0,1.0,0.55,False,0.4058521132683381
03,3t2,4,94,10.0,22.0,1.0,0.55,False,0.5398134216247854
03,3t2,4,95,28.0,44.0,1.0,0.55,False,0.7404043104015727
03,3t2,4,96,28.0,77.0,1.0,0.55,False,0.6571935013070629
03,3t2,5,97,15.0,10.0,0.55,1.0,True,0.8446271099455771
03,3t2,5,98,16.0,7.0,0.55,1.0,True,0.3561506163678132
03,3t2,5,99,15.0,14.0,0.55,1.0,True,0.6234500394930365
03,3t2,5,100,9.0,7.0,0.55,1.0,True,0.7067464322317107
03,3t2,5,101,26.0,14.0,0.55,1.0,True,0.7400056232072529
03,3t2,5,102,44.0,28.0,0.55,1.0,True,0.6733603725406425
03,3t2,5,103,21.0,20.0,0.55,1.0,True,1.809052037568108
03,3t2,5,104,44.0,28.0,0.55,1.0,True,1.0072917868946971
03,3t2,5,105,19.0,10.0,0.55,1.0,True,0.4061504506244091
03,3t2,5,106,27.0,10.0,0.55,1.0,True,1.1577375902961649
03,3t2,5,107,22.0,14.0,0.55,1.0,True,0.72344096883171
03,3t2,5,108,11.0,7.0,0.55,1.0,True,0.7902055544382165
03,3t2,5,109,10.0,27.0,1.0,0.55,False,0.8247174609623471
03,3t2,5,110,20.0,45.0,1.0,0.55,False,0.3899537456563848
03,3t2,5,111,20.0,66.0,1.0,0.55,False,0.7741462654630027
03,3t2,5,112,10.0,33.0,1.0,0.55,False,0.7757226318427399
03,3t2,5,113,5.0,20.0,1.0,0.55,False,0.3395178566952381
03,3t2,5,114,28.0,77.0,1.0,0.55,False,0.8575903201272013
03,3t2,5,115,28.0,44.0,1.0,0.55,False,0.82401410804232
03,3t2,5,116,14.0,15.0,1.0,0.55,False,0.723516909249156
03,3t2,5,117,28.0,112.0,1.0,0.55,False,0.807342172756762
03,3t2,5,118,14.0,46.0,1.0,0.55,False,0.7736882121498638
03,3t2,5,119,20.0,80.0,1.0,0.55,False,0.3059790121170067
03,3t2,5,120,7.0,28.0,1.0,0.55,False,0.89047884953834
03,3t2,6,121,7.0,9.0,1.0,0.55,False,0.9110605109526588
03,3t2,6,122,28.0,53.0,1.0,0.55,False,0.3727258180242643
03,3t2,6,123,5.0,16.0,1.0,0.55,False,0.6899286431289511
03,3t2,6,124,5.0,6.0,1.0,0.55,False,0.8571485397587821
03,3t2,6,125,10.0,19.0,1.0,0.55,False,0.8739054559882931
03,3t2,6,126,14.0,46.0,1.0,0.55,False,0.873767738641618
03,3t2,6,127,14.0,26.0,1.0,0.55,False,0.8569680305899965
03,3t2,6,128,14.0,26.0,1.0,0.55,False,1.0409382137313798
03,3t2,6,129,10.0,40.0,1.0,0.55,False,0.8405257246667759
03,3t2,6,130,7.0,23.0,1.0,0.55,False,0.7903709960628191
03,3t2,6,131,5.0,9.0,1.0,0.55,False,1.0908669291838748
03,3t2,6,132,20.0,26.0,1.0,0.55,False,0.8572341234066698
03,3t2,6,133,31.0,20.0,0.55,1.0,True,0.8580842341962409
03,3t2,6,134,40.0,10.0,0.55,1.0,True,0.9241734925144556
03,3t2,6,135,7.0,7.0,0.55,1.0,True,0.4567427406837225
03,3t2,6,136,32.0,14.0,0.55,1.0,True,0.6900663604738213
03,3t2,6,137,28.0,7.0,0.55,1.0,True,0.957508021207076
03,3t2,6,138,15.0,14.0,0.55,1.0,True,0.5566176499396533
03,3t2,6,139,56.0,14.0,0.55,1.0,False,0.8072611093739397
03,3t2,6,140,19.0,10.0,0.55,1.0,False,0.7403313834929577
03,3t2,6,141,112.0,28.0,0.55,1.0,False,0.92461738233942
03,3t2,6,142,23.0,7.0,0.55,1.0,False,0.7737445647599088
03,3t2,6,143,16.0,5.0,0.55,1.0,True,0.7399583111218817
03,3t2,6,144,9.0,5.0,0.55,1.0,True,0.6568791923564277
03,3t2,7,145,20.0,31.0,1.0,0.55,False,0.7442257407274084
03,3t2,7,146,5.0,7.0,1.0,0.55,False,0.8403768573389243
03,3t2,7,147,5.0,6.0,1.0,0.55,False,0.7233662338167051
03,3t2,7,148,20.0,21.0,1.0,0.55,False,0.6563235013582016
03,3t2,7,149,7.0,9.0,1.0,0.55,False,0.8906569479004247
03,3t2,7,150,20.0,55.0,1.0,0.55,False,0.6073045641696808
03,3t2,7,151,14.0,18.0,1.0,0.55,False,1.4751576893741287
03,3t2,7,152,10.0,10.0,1.0,0.55,False,0.2558592402147042
03,3t2,7,153,5.0,9.0,1.0,0.55,False,1.074222416827979
03,3t2,7,154,5.0,11.0,1.0,0.55,False,1.3745511002180135
03,3t2,7,155,7.0,13.0,1.0,0.55,False,0.4561966929159382
03,3t2,7,156,10.0,27.0,1.0,0.55,False,0.3060525417295423
03,3t2,7,157,20.0,5.0,0.55,1.0,True,0.6915007905936648
03,3t2,7,158,18.0,14.0,0.55,1.0,True,0.6901486292608183
03,3t2,7,159,18.0,14.0,0.55,1.0,True,0.2396468650022427
03,3t2,7,160,5.0,5.0,0.55,1.0,True,0.7573534884832043
03,3t2,7,161,38.0,20.0,0.55,1.0,True,0.1724001180081984
03,3t2,7,162,53.0,28.0,0.55,1.0,True,0.5733236378709989
03,3t2,7,163,11.0,5.0,0.55,1.0,False,
03,3t2,7,164,77.0,28.0,0.55,1.0,True,0.456487797851878
03,3t2,7,165,28.0,7.0,0.55,1.0,True,2.544127259263405
03,3t2,7,166,38.0,14.0,0.55,1.0,True,0.2560132305080174
03,3t2,7,167,45.0,20.0,0.55,1.0,True,1.157850295518017
03,3t2,7,168,7.0,5.0,0.55,1.0,True,0.7904180067997686
03,3t2,8,169,93.0,28.0,0.55,1.0,True,0.7778622229870926
03,3t2,8,170,26.0,20.0,0.55,1.0,True,0.3560243503543461
03,3t2,8,171,40.0,10.0,0.55,1.0,True,0.4396229980138741
03,3t2,8,172,27.0,10.0,0.55,1.0,True,0.6235103096641836
03,3t2,8,173,66.0,20.0,0.55,1.0,True,0.6234714354031894
03,3t2,8,174,53.0,28.0,0.55,1.0,True,0.7237887277297261
03,3t2,8,175,7.0,5.0,0.55,1.0,True,0.6732784051073111
03,3t2,8,176,80.0,20.0,0.55,1.0,True,1.2079064823883527
03,3t2,8,177,80.0,20.0,0.55,1.0,True,1.1411262265355615
03,3t2,8,178,33.0,10.0,0.55,1.0,True,0.6734893507127424
03,3t2,8,179,64.0,28.0,0.55,1.0,True,0.7066756147777937
03,3t2,8,180,10.0,10.0,0.55,1.0,True,1.1243855832526322
03,3t2,8,181,28.0,36.0,1.0,0.55,False,0.7914477227059251
03,3t2,8,182,7.0,28.0,1.0,0.55,False,0.272890687081599
03,3t2,8,183,7.0,7.0,1.0,0.55,False,1.074464401574005
03,3t2,8,184,20.0,26.0,1.0,0.55,False,0.5400083956355957
03,3t2,8,185,10.0,10.0,1.0,0.55,False,0.7403057686697139
03,3t2,8,186,28.0,93.0,1.0,0.55,False,0.3231463682259345
03,3t2,8,187,20.0,38.0,1.0,0.55,False,1.2751592563981262
03,3t2,8,188,10.0,22.0,1.0,0.55,False,0.6901332603665651
03,3t2,8,189,5.0,5.0,1.0,0.55,False,0.6398830035395804
03,3t2,8,190,14.0,32.0,1.0,0.55,False,0.5901067716240505
03,3t2,8,191,20.0,21.0,1.0,0.55,False,0.3563079215200559
03,3t2,8,192,7.0,16.0,1.0,0.55,False,0.6904551030911534
03,7t2,1,1,10.0,14.0,1.0,0.55,False,0.8443114000256173
03,7t2,1,2,14.0,43.0,1.0,0.55,True,0.8594718999811448
03,7t2,1,3,14.0,27.0,1.0,0.55,True,1.1576536999782403
03,7t2,1,4,10.0,26.0,1.0,0.55,True,1.091220300004352
03,7t2,1,5,7.0,16.0,1.0,0.55,False,0.8232524999766753
03,7t2,1,6,14.0,43.0,1.0,0.55,True,0.8403167999931469
03,7t2,1,7,10.0,12.0,1.0,0.55,False,0.9401023000246056
03,7t2,1,8,7.0,10.0,1.0,0.55,False,0.809410999994725
03,7t2,1,9,14.0,20.0,1.0,0.55,False,0.8406790999579243
03,7t2,1,10,7.0,25.0,1.0,0.55,True,0.6910531999892555
03,7t2,1,11,10.0,19.0,1.0,0.55,False,0.7742890000227476
03,7t2,1,12,5.0,9.0,1.0,0.55,False,1.024414400046254
03,7t2,1,13,26.0,10.0,0.55,1.0,False,0.9252498000278422
03,7t2,1,14,18.0,7.0,0.55,1.0,False,0.8412326000398025
03,7t2,1,15,39.0,20.0,0.55,1.0,True,0.7261086999787665
03,7t2,1,16,6.0,5.0,0.55,1.0,False,1.2594047000166029
03,7t2,1,17,17.0,10.0,0.55,1.0,False,0.8584419999969555
03,7t2,1,18,15.0,5.0,0.55,1.0,False,0.8242831000243314
03,7t2,1,19,102.0,28.0,0.55,1.0,False,0.7083873000228778
03,7t2,1,20,13.0,5.0,0.55,1.0,True,0.8912727999850176
03,7t2,1,21,6.0,5.0,0.55,1.0,False,0.9242396000190638
03,7t2,1,22,36.0,10.0,0.55,1.0,False,0.8919784000026993
03,7t2,1,23,75.0,28.0,0.55,1.0,False,0.8089336000267053
03,7t2,1,24,7.0,5.0,0.55,1.0,False,1.0087246000184678
03,7t2,2,25,43.0,14.0,0.55,1.0,False,0.7600332000292802
03,7t2,2,26,11.0,7.0,0.55,1.0,False,1.2428590000490658
03,7t2,2,27,64.0,28.0,0.55,1.0,False,1.1754000000073574
03,7t2,2,28,23.0,10.0,0.55,1.0,False,1.1070660999975956
03,7t2,2,29,8.0,5.0,0.55,1.0,False,0.0725854999618604
03,7t2,2,30,34.0,20.0,0.55,1.0,False,0.8094647999969453
03,7t2,2,31,8.0,5.0,0.55,1.0,False,0.5745623999973617
03,7t2,2,32,47.0,28.0,0.55,1.0,False,0.8738156000035815
03,7t2,2,33,55.0,28.0,0.55,1.0,True,0.7762691999669187
03,7t2,2,34,55.0,28.0,0.55,1.0,False,0.8752536999527081
03,7t2,2,35,13.0,7.0,0.55,1.0,False,0.9245763999642804
03,7t2,2,36,32.0,14.0,0.55,1.0,False,0.5910158999613486
03,7t2,2,37,10.0,26.0,1.0,0.55,True,0.4580659000203013
03,7t2,2,38,14.0,23.0,1.0,0.55,False,0.690994900010935
03,7t2,2,39,28.0,35.0,1.0,0.55,True,0.8579759999992973
03,7t2,2,40,28.0,40.0,1.0,0.55,False,0.8413557999884063
03,7t2,2,41,20.0,39.0,1.0,0.55,True,0.7449871000135317
03,7t2,2,42,7.0,11.0,1.0,0.55,True,0.9079645000165328
03,7t2,2,43,20.0,39.0,1.0,0.55,True,0.6588790999958292
03,7t2,2,44,14.0,32.0,1.0,0.55,True,0.7738666000077501
03,7t2,2,45,10.0,31.0,1.0,0.55,False,0.6235748000326566
03,7t2,2,46,7.0,21.0,1.0,0.55,False,0.5754917999729514
03,7t2,2,47,20.0,29.0,1.0,0.55,True,0.7414524999912828
03,7t2,2,48,5.0,8.0,1.0,0.55,True,1.0417563000228256
03,7t2,3,49,40.0,28.0,0.55,1.0,False,0.3426934999879449
03,7t2,3,50,72.0,20.0,0.55,1.0,False,0.7079079999821261
03,7t2,3,51,31.0,10.0,0.55,1.0,False,0.7087484999792792
03,7t2,3,52,25.0,7.0,0.55,1.0,False,1.640292500029318
03,7t2,3,53,87.0,28.0,0.55,1.0,False,0.3597633999888785
03,7t2,3,54,17.0,14.0,0.55,1.0,False,0.8418241000035778
03,7t2,3,55,14.0,10.0,0.55,1.0,True,0.925814500020337
03,7t2,3,56,11.0,7.0,0.55,1.0,True,1.1410455000004731
03,7t2,3,57,36.0,10.0,0.55,1.0,False,0.6575121000060165
03,7t2,3,58,10.0,7.0,0.55,1.0,True,0.9410945000126958
03,7t2,3,59,27.0,14.0,0.55,1.0,False,0.6886924999998882
03,7t2,3,60,37.0,14.0,0.55,1.0,False,0.4742399000096782
03,7t2,3,61,5.0,13.0,1.0,0.55,True,1.3259051999775693
03,7t2,3,62,10.0,23.0,1.0,0.55,False,0.9230478000244772
03,7t2,3,63,5.0,18.0,1.0,0.55,True,0.6111412000027769
03,7t2,3,64,5.0,15.0,1.0,0.55,True,0.2247800999903404
03,7t2,3,65,10.0,17.0,1.0,0.55,False,0.5418283999898108
03,7t2,3,66,20.0,25.0,1.0,0.55,True,0.5247558999690227
03,7t2,3,67,10.0,31.0,1.0,0.55,False,0.3241552000399679
03,7t2,3,68,10.0,36.0,1.0,0.55,True,0.5415259000146762
03,7t2,3,69,14.0,20.0,1.0,0.55,False,0.3088324000127613
03,7t2,3,70,14.0,27.0,1.0,0.55,False,0.4090615000459365
03,7t2,3,71,20.0,62.0,1.0,0.55,True,0.4328489999752491
03,7t2,3,72,7.0,18.0,1.0,0.55,True,0.2929192000301555
03,7t2,4,73,17.0,10.0,0.55,1.0,False,0.6257433000137098
03,7t2,4,74,8.0,7.0,0.55,1.0,False,0.9922050000168384
03,7t2,4,75,8.0,7.0,0.55,1.0,False,0.7922042999998524
03,7t2,4,76,51.0,14.0,0.55,1.0,False,0.6107456999598142
03,7t2,4,77,27.0,14.0,0.55,1.0,False,0.2575820999918505
03,7t2,4,78,21.0,7.0,0.55,1.0,False,0.8747599999769591
03,7t2,4,79,47.0,28.0,0.55,1.0,False,0.4575608999584801
03,7t2,4,80,19.0,10.0,0.55,1.0,True,0.7593796000001021
03,7t2,4,81,87.0,28.0,0.55,1.0,False,0.6248061999795027
03,7t2,4,82,26.0,10.0,0.55,1.0,False,0.6747334999963357
03,7t2,4,83,7.0,5.0,0.55,1.0,False,0.8907280000275932
03,7t2,4,84,31.0,10.0,0.55,1.0,False,0.8234691999969357
03,7t2,4,85,5.0,6.0,1.0,0.55,False,0.9750659999554044
03,7t2,4,86,28.0,64.0,1.0,0.55,False,0.4040326000540517
03,7t2,4,87,20.0,53.0,1.0,0.55,True,0.5074432999826683
03,7t2,4,88,14.0,51.0,1.0,0.55,False,0.8731122000026801
03,7t2,4,89,5.0,7.0,1.0,0.55,False,0.6118473999667629
03,7t2,4,90,5.0,7.0,1.0,0.55,True,0.7397668000194813
03,7t2,4,91,14.0,37.0,1.0,0.55,True,0.6247996999882162
03,7t2,4,92,28.0,35.0,1.0,0.55,True,0.6752574000274763
03,7t2,4,93,28.0,47.0,1.0,0.55,False,0.3917031000019051
03,7t2,4,94,10.0,19.0,1.0,0.55,False,0.6246887000161792
03,7t2,4,95,20.0,29.0,1.0,0.55,True,0.774100799986627
03,7t2,4,96,28.0,102.0,1.0,0.55,True,0.6120501999976113
03,7t2,5,97,29.0,20.0,0.55,1.0,False,0.8757129000150599
03,7t2,5,98,64.0,28.0,0.55,1.0,True,0.4239465999999012
03,7t2,5,99,62.0,20.0,0.55,1.0,False,0.5093412999995053
03,7t2,5,100,20.0,14.0,0.55,1.0,True,0.8098021000041626
03,7t2,5,101,9.0,5.0,0.55,1.0,False,0.8572166999801993
03,7t2,5,102,46.0,20.0,0.55,1.0,False,0.4236193000105999
03,7t2,5,103,18.0,7.0,0.55,1.0,False,0.7742914000409513
03,7t2,5,104,18.0,5.0,0.55,1.0,False,0.7085734999854765
03,7t2,5,105,9.0,5.0,0.55,1.0,True,0.2577875999850789
03,7t2,5,106,62.0,20.0,0.55,1.0,False,0.9762499000061666
03,7t2,5,107,25.0,20.0,0.55,1.0,False,0.4244201999972574
03,7t2,5,108,23.0,14.0,0.55,1.0,False,0.8736755999852903
03,7t2,5,109,5.0,6.0,1.0,0.55,False,0.8259190000244416
03,7t2,5,110,28.0,75.0,1.0,0.55,False,1.6653338000178053
03,7t2,5,111,28.0,102.0,1.0,0.55,True,0.8613647000165656
03,7t2,5,112,20.0,46.0,1.0,0.55,True,0.8075237000011555
03,7t2,5,113,28.0,87.0,1.0,0.55,False,2.44818970002234
03,7t2,5,114,7.0,8.0,1.0,0.55,False,1.1577763999812305
03,7t2,5,115,7.0,10.0,1.0,0.55,True,0.8597589000127641
03,7t2,5,116,7.0,13.0,1.0,0.55,False,0.6910966000286294
03,7t2,5,117,20.0,62.0,1.0,0.55,True,0.4778540999977849
03,7t2,5,118,14.0,17.0,1.0,0.55,False,0.6410815999842612
03,7t2,5,119,20.0,72.0,1.0,0.55,False,0.5806179000064162
03,7t2,5,120,14.0,32.0,1.0,0.55,False,0.5412975999643095
03,7t2,6,121,102.0,28.0,0.55,1.0,True,0.393923099967651
03,7t2,6,122,29.0,20.0,0.55,1.0,False,0.7405451999511499
03,7t2,6,123,14.0,10.0,0.55,1.0,False,0.6912776999524795
03,7t2,6,124,23.0,14.0,0.55,1.0,False,0.7404167000204325
03,7t2,6,125,15.0,5.0,0.55,1.0,False,0.5405730999773226
03,7t2,6,126,18.0,5.0,0.55,1.0,False,0.8082338999956704
03,7t2,6,127,37.0,14.0,0.55,1.0,False,0.8756356999511041
03,7t2,6,128,51.0,14.0,0.55,1.0,False,0.7074387999600731
03,7t2,6,129,75.0,28.0,0.55,1.0,True,1.040093900053705
03,7t2,6,130,39.0,20.0,0.55,1.0,True,0.9718770000035876
03,7t2,6,131,35.0,28.0,0.55,1.0,True,0.4242675999994674
03,7t2,6,132,12.0,10.0,0.55,1.0,False,0.6252647000365528
03,7t2,6,133,10.0,23.0,1.0,0.55,False,0.2075877999887154
03,7t2,6,134,5.0,8.0,1.0,0.55,False,0.3911629000212713
03,7t2,6,135,20.0,72.0,1.0,0.55,False,0.2123168000252917
03,7t2,6,136,20.0,46.0,1.0,0.55,False,0.4070978999953354
03,7t2,6,137,28.0,87.0,1.0,0.55,False,0.3264038999913907
03,7t2,6,138,10.0,14.0,1.0,0.55,False,0.275666999979876
03,7t2,6,139,10.0,17.0,1.0,0.55,False,0.4424479999579489
03,7t2,6,140,28.0,40.0,1.0,0.55,False,0.774440000008326
03,7t2,6,141,20.0,53.0,1.0,0.55,False,0.723902800003998
03,7t2,6,142,14.0,37.0,1.0,0.55,False,0.2084649000316858
03,7t2,6,143,5.0,13.0,1.0,0.55,True,0.6744344999897294
03,7t2,6,144,28.0,47.0,1.0,0.55,False,0.2398084999877028
03,7t2,7,145,28.0,55.0,1.0,0.55,False,0.6590033000102231
03,7t2,7,146,7.0,25.0,1.0,0.55,False,0.675104999972973
03,7t2,7,147,28.0,64.0,1.0,0.55,False,0.6070727000478797
03,7t2,7,148,5.0,9.0,1.0,0.55,False,0.6257122000097297
03,7t2,7,149,20.0,34.0,1.0,0.55,False,4.140385599981528
03,7t2,7,150,28.0,75.0,1.0,0.55,False,0.4848563999985344
03,7t2,7,151,7.0,21.0,1.0,0.55,False,0.8237995000090592
03,7t2,7,152,5.0,11.0,1.0,0.55,False,0.3253870000480532
03,7t2,7,153,14.0,51.0,1.0,0.55,False,0.2901750999735668
03,7t2,7,154,20.0,34.0,1.0,0.55,False,0.9411724999663704
03,7t2,7,155,7.0,18.0,1.0,0.55,False,0.4260336000006646
03,7t2,7,156,7.0,13.0,1.0,0.55,False,0.5925921000307142
03,7t2,7,157,10.0,7.0,0.55,1.0,True,1.2419447999564
03,7t2,7,158,46.0,20.0,0.55,1.0,True,0.4086724999942817
03,7t2,7,159,25.0,7.0,0.55,1.0,True,0.2405824000016423
03,7t2,7,160,20.0,14.0,0.55,1.0,True,0.7076385000255243
03,7t2,7,161,25.0,20.0,0.55,1.0,False,0.8256700000492287
03,7t2,7,162,35.0,28.0,0.55,1.0,True,0.5577949999715202
03,7t2,7,163,72.0,20.0,0.55,1.0,True,0.2581122999545187
03,7t2,7,164,16.0,7.0,0.55,1.0,True,0.6132843999658348
03,7t2,7,165,12.0,10.0,0.55,1.0,True,1.17477639997378
03,7t2,7,166,11.0,5.0,0.55,1.0,True,0.4798248999867951
03,7t2,7,167,11.0,5.0,0.55,1.0,True,0.6577669999678619
03,7t2,7,168,43.0,14.0,0.55,1.0,True,0.0913064999622292
03,7t2,8,169,23.0,10.0,0.55,1.0,True,0.810732799989637
03,7t2,8,170,19.0,10.0,0.55,1.0,True,0.2729568000067957
03,7t2,8,171,40.0,28.0,0.55,1.0,True,0.2069985999842174
03,7t2,8,172,53.0,20.0,0.55,1.0,False,
03,7t2,8,173,16.0,7.0,0.55,1.0,True,0.540977299970109
03,7t2,8,174,13.0,5.0,0.55,1.0,False,0.7256740999873728
03,7t2,8,175,13.0,7.0,0.55,1.0,False,0.7080836999812448
03,7t2,8,176,53.0,20.0,0.55,1.0,True,0.3080655999947623
03,7t2,8,177,21.0,7.0,0.55,1.0,True,0.2892249000142044
03,7t2,8,178,34.0,20.0,0.55,1.0,True,0.7072540000080778
03,7t2,8,179,17.0,14.0,0.55,1.0,True,0.6907027999986894
03,7t2,8,180,32.0,14.0,0.55,1.0,True,0.6578800000134208
03,7t2,8,181,5.0,15.0,1.0,0.55,False,0.756839299981948
03,7t2,8,182,14.0,17.0,1.0,0.55,False,0.5909854000201165
03,7t2,8,183,28.0,55.0,1.0,0.55,True,0.3604779000161784
03,7t2,8,184,7.0,16.0,1.0,0.55,False,0.458668900013464
03,7t2,8,185,10.0,12.0,1.0,0.55,False,0.676224800001421
03,7t2,8,186,14.0,23.0,1.0,0.55,False,0.674499599961564
03,7t2,8,187,5.0,11.0,1.0,0.55,False,0.8762950000236742
03,7t2,8,188,7.0,11.0,1.0,0.55,True,1.9416970000020228
03,7t2,8,189,10.0,36.0,1.0,0.55,False,0.2736103999777697
03,7t2,8,190,5.0,18.0,1.0,0.55,False,0.6112237999914214
03,7t2,8,191,20.0,25.0,1.0,0.55,False,0.2910874999943189
03,7t2,8,192,7.0,8.0,1.0,0.55,False,0.5422701999777928
04,3t2,1,1,14.0,24.0,1.0,0.55,False,1.998735531006332
04,3t2,1,2,14.0,15.0,1.0,0.55,False,1.0406968562156038
04,3t2,1,3,28.0,91.0,1.0,0.55,False,1.1245155405226797
04,3t2,1,4,20.0,25.0,1.0,0.55,False,1.474704743777707
04,3t2,1,5,14.0,45.0,1.0,0.55,True,1.158425669805638
04,3t2,1,6,7.0,12.0,1.0,0.55,True,0.3560429473459408
04,3t2,1,7,20.0,65.0,1.0,0.55,False,2.0431911388327535
04,3t2,1,8,7.0,22.0,1.0,0.55,True,0.7736133406901757
04,3t2,1,9,10.0,15.0,1.0,0.55,True,1.2409922405118152
04,3t2,1,10,14.0,18.0,1.0,0.55,True,1.25786036537599
04,3t2,1,11,28.0,30.0,1.0,0.55,False,0.9407775881609268
04,3t2,1,12,5.0,16.0,1.0,0.55,True,0.3729472343356974
04,3t2,1,13,41.0,20.0,0.55,1.0,True,2.1263965737589103
04,3t2,1,14,24.0,10.0,0.55,1.0,False,0.7402251514218392
04,3t2,1,15,7.0,7.0,0.55,1.0,False,0.9574896131830712
04,3t2,1,16,19.0,7.0,0.55,1.0,False,1.3247557775776215
04,3t2,1,17,36.0,28.0,0.55,1.0,True,1.074405984349596
04,3t2,1,18,17.0,10.0,0.55,1.0,False,1.3915987546970428
04,3t2,1,19,56.0,20.0,0.55,1.0,True,1.3914806250863876
04,3t2,1,20,8.0,5.0,0.55,1.0,True,1.809246595260504
04,3t2,1,21,78.0,28.0,0.55,1.0,True,0.9574359726962598
04,3t2,1,22,20.0,10.0,0.55,1.0,False,1.4081130934314388
04,3t2,1,23,35.0,20.0,0.55,1.0,True,1.1578112150205015
04,3t2,1,24,15.0,10.0,0.55,1.0,False,0.9258974761546596
04,3t2,2,25,5.0,12.0,1.0,0.55,True,1.2957359730880853
04,3t2,2,26,14.0,39.0,1.0,0.55,True,0.923864260639661
04,3t2,2,27,7.0,9.0,1.0,0.55,False,1.5760692914541323
04,3t2,2,28,10.0,24.0,1.0,0.55,True,0.9737065184340424
04,3t2,2,29,20.0,48.0,1.0,0.55,False,0.6402347645198603
04,3t2,2,30,5.0,16.0,1.0,0.55,True,1.2580405733024094
04,3t2,2,31,10.0,28.0,1.0,0.55,True,1.174436752291513
04,3t2,2,32,28.0,57.0,1.0,0.55,False,0.9244329100661304
04,3t2,2,33,10.0,20.0,1.0,0.55,True,2.376821102046506
04,3t2,2,34,28.0,57.0,1.0,0.55,False,0.8741341054351324
04,3t2,2,35,20.0,30.0,1.0,0.55,False,1.3915436074553045
04,3t2,2,36,5.0,12.0,1.0,0.55,True,1.6757224665343529
04,3t2,2,37,49.0,28.0,0.55,1.0,True,1.3416269159525314
04,3t2,2,38,16.0,5.0,0.55,1.0,False,0.6734764971797631
04,3t2,2,39,7.0,7.0,0.55,1.0,True,3.3119790958803605
04,3t2,2,40,24.0,14.0,0.55,1.0,True,3.262112730002201
04,3t2,2,41,15.0,10.0,0.55,1.0,False,1.408406910702979
04,3t2,2,42,12.0,5.0,0.55,1.0,False,1.1078426911371937
04,3t2,2,43,35.0,20.0,0.55,1.0,True,1.9762670982818236
04,3t2,2,44,25.0,20.0,0.55,1.0,True,2.109756872988328
04,3t2,2,45,10.0,7.0,0.55,1.0,False,2.994969245618904
04,3t2,2,46,22.0,7.0,0.55,1.0,False,1.3582283451401054
04,3t2,2,47,14.0,7.0,0.55,1.0,False,1.124395602806146
04,3t2,2,48,33.0,14.0,0.55,1.0,True,1.9429452062431665
04,3t2,3,49,14.0,28.0,1.0,0.55,True,1.429168491096334
04,3t2,3,50,20.0,35.0,1.0,0.55,False,1.4591716040522442
04,3t2,3,51,5.0,6.0,1.0,0.55,False,1.542152231097134
04,3t2,3,52,10.0,17.0,1.0,0.55,True,1.4082019919906088
04,3t2,3,53,20.0,25.0,1.0,0.55,False,1.4416043447581617
04,3t2,3,54,20.0,56.0,1.0,0.55,False,1.0916776182666723
04,3t2,3,55,5.0,5.0,1.0,0.55,False,1.6086748720545216
04,3t2,3,56,14.0,33.0,1.0,0.55,True,1.9761411335439192
04,3t2,3,57,14.0,28.0,1.0,0.55,False,1.1244025338801291
04,3t2,3,58,20.0,35.0,1.0,0.55,False,1.2916240380500312
04,3t2,3,59,14.0,21.0,1.0,0.55,True,2.594172051559383
04,3t2,3,60,7.0,12.0,1.0,0.55,True,1.942596844432046
04,3t2,3,61,39.0,14.0,0.55,1.0,False,2.0264242679204756
04,3t2,3,62,22.0,20.0,0.55,1.0,True,1.7922928866991583
04,3t2,3,63,19.0,7.0,0.55,1.0,False,1.0572322895241086
04,3t2,3,64,32.0,10.0,0.55,1.0,False,2.3269065200010743
04,3t2,3,65,9.0,7.0,0.55,1.0,False,0.8598904468399269
04,3t2,3,66,14.0,5.0,0.55,1.0,False,0.7404972714166433
04,3t2,3,67,16.0,5.0,0.55,1.0,False,0.9575441577217134
04,3t2,3,68,39.0,14.0,0.55,1.0,True,1.3921541446771355
04,3t2,3,69,48.0,20.0,0.55,1.0,True,1.0578630172659018
04,3t2,3,70,18.0,14.0,0.55,1.0,True,1.5253097210725173
04,3t2,3,71,30.0,28.0,0.55,1.0,True,1.0410807774487694
04,3t2,3,72,10.0,5.0,0.55,1.0,False,0.8406591270641002
04,3t2,4,73,7.0,9.0,1.0,0.55,True,2.765182141093643
04,3t2,4,74,28.0,42.0,1.0,0.55,False,1.4094209569766465
04,3t2,4,75,7.0,10.0,1.0,0.55,False,2.5940949056903264
04,3t2,4,76,7.0,14.0,1.0,0.55,True,1.124327497469494
04,3t2,4,77,7.0,14.0,1.0,0.55,True,1.7425142139754968
04,3t2,4,78,20.0,22.0,1.0,0.55,False,1.1912723312425155
04,3t2,4,79,7.0,16.0,1.0,0.55,True,0.7570655519884752
04,3t2,4,80,28.0,30.0,1.0,0.55,False,0.9574691213110782
04,3t2,4,81,28.0,78.0,1.0,0.55,False,1.809235143920887
04,3t2,4,82,7.0,19.0,1.0,0.55,True,1.4585595600756278
04,3t2,4,83,20.0,48.0,1.0,0.55,False,0.9411741661397172
04,3t2,4,84,5.0,14.0,1.0,0.55,True,1.5086151744117444
04,3t2,4,85,67.0,28.0,0.55,1.0,True,1.091086066159761
04,3t2,4,86,49.0,28.0,0.55,1.0,True,1.2581074732343325
04,3t2,4,87,36.0,28.0,0.55,1.0,True,1.024504963101208
04,3t2,4,88,22.0,7.0,0.55,1.0,False,0.5233994567843467
04,3t2,4,89,42.0,28.0,0.55,1.0,True,0.8406832351483899
04,3t2,4,90,57.0,28.0,0.55,1.0,True,0.5734086630590696
04,3t2,4,91,5.0,5.0,0.55,1.0,True,1.6091052013489957
04,3t2,4,92,28.0,10.0,0.55,1.0,False,1.0911264472006224
04,3t2,4,93,30.0,20.0,0.55,1.0,True,1.1747998803029986
04,3t2,4,94,30.0,20.0,0.55,1.0,True,0.9911565521697412
04,3t2,4,95,11.0,10.0,0.55,1.0,False,0.9743438758986828
04,3t2,4,96,6.0,5.0,0.55,1.0,True,0.9909091429608452
04,3t2,5,97,14.0,5.0,0.55,1.0,False,0.6774926025855272
04,3t2,5,98,15.0,14.0,0.55,1.0,True,1.058585054373914
04,3t2,5,99,24.0,10.0,0.55,1.0,True,1.458636705943725
04,3t2,5,100,45.0,14.0,0.55,1.0,False,2.1601020856805917
04,3t2,5,101,21.0,14.0,0.55,1.0,True,1.9759811161375185
04,3t2,5,102,56.0,20.0,0.55,1.0,True,1.5421239040997392
04,3t2,5,103,12.0,7.0,0.55,1.0,True,2.444063067952797
04,3t2,5,104,24.0,14.0,0.55,1.0,True,1.2244477666718012
04,3t2,5,105,28.0,14.0,0.55,1.0,False,2.0429160053272426
04,3t2,5,106,8.0,5.0,0.55,1.0,True,1.49184559133937
04,3t2,5,107,10.0,5.0,0.55,1.0,False,3.0282839052324846
04,3t2,5,108,91.0,28.0,0.55,1.0,True,0.8740536447048726
04,3t2,5,109,7.0,7.0,1.0,0.55,False,1.4081893352467605
04,3t2,5,110,7.0,7.0,1.0,0.55,False,2.04319324829072
04,3t2,5,111,10.0,24.0,1.0,0.55,True,1.5756266067664626
04,3t2,5,112,10.0,11.0,1.0,0.55,False,0.8241068180968512
04,3t2,5,113,14.0,45.0,1.0,0.55,True,0.9910830225144308
04,3t2,5,114,28.0,49.0,1.0,0.55,False,0.4064098573126102
04,3t2,5,115,20.0,41.0,1.0,0.55,False,1.675816488061173
04,3t2,5,116,5.0,10.0,1.0,0.55,True,2.577686642523986
04,3t2,5,117,28.0,36.0,1.0,0.55,False,0.4231351417811311
04,3t2,5,118,5.0,7.0,1.0,0.55,False,1.207883102312735
04,3t2,5,119,28.0,42.0,1.0,0.55,False,0.6734460607239612
04,3t2,5,120,10.0,28.0,1.0,0.55,True,1.8260351634480685
04,3t2,6,121,5.0,8.0,1.0,0.55,True,1.8608620026161589
04,3t2,6,122,10.0,15.0,1.0,0.55,True,1.0574052650244994
04,3t2,6,123,28.0,67.0,1.0,0.55,False,1.0421141101896865
04,3t2,6,124,14.0,33.0,1.0,0.55,True,2.1099229174160428
04,3t2,6,125,10.0,17.0,1.0,0.55,False,2.477161658865043
04,3t2,6,126,5.0,6.0,1.0,0.55,False,1.194529634711202
04,3t2,6,127,28.0,49.0,1.0,0.55,False,0.8575932478079125
04,3t2,6,128,20.0,56.0,1.0,0.55,True,1.024643283231839
04,3t2,6,129,7.0,16.0,1.0,0.55,True,1.8425814453939893
04,3t2,6,130,7.0,19.0,1.0,0.55,True,1.0075153937650612
04,3t2,6,131,10.0,32.0,1.0,0.55,True,1.4580981916224118
04,3t2,6,132,20.0,41.0,1.0,0.55,False,0.6903837976805391
04,3t2,6,133,18.0,14.0,0.55,1.0,True,2.0764976619675792
04,3t2,6,134,12.0,7.0,0.55,1.0,True,1.090937500093844
04,3t2,6,135,28.0,10.0,0.55,1.0,False,1.8093122897880392
04,3t2,6,136,91.0,28.0,0.55,1.0,True,1.191378406811026
04,3t2,6,137,12.0,10.0,0.55,1.0,True,1.5587229224784096
04,3t2,6,138,22.0,20.0,0.55,1.0,True,0.973980145184214
04,3t2,6,139,45.0,14.0,0.55,1.0,False,1.3417019523631095
04,3t2,6,140,17.0,10.0,0.55,1.0,True,2.8280069033498876
04,3t2,6,141,65.0,20.0,0.55,1.0,True,1.959329059974152
04,3t2,6,142,30.0,28.0,0.55,1.0,True,0.6733309446244107
04,3t2,6,143,14.0,7.0,0.55,1.0,False,2.310279777325377
04,3t2,6,144,33.0,14.0,0.55,1.0,False,1.6257352588863796
04,3t2,7,145,12.0,10.0,0.55,1.0,True,2.0972571329039127
04,3t2,7,146,10.0,7.0,0.55,1.0,True,1.4415627583139212
04,3t2,7,147,21.0,14.0,0.55,1.0,True,2.410045959048148
04,3t2,7,148,42.0,28.0,0.55,1.0,True,0.8402318112794092
04,3t2,7,149,12.0,5.0,0.55,1.0,False,1.1416506624154863
04,3t2,7,150,7.0,5.0,0.55,1.0,True,0.5897982424612565
04,3t2,7,151,5.0,5.0,0.55,1.0,True,0.4730066306274239
04,3t2,7,152,28.0,14.0,0.55,1.0,True,1.8091112886404377
04,3t2,7,153,20.0,10.0,0.55,1.0,False,0.6566276587827815
04,3t2,7,154,6.0,5.0,0.55,1.0,True,0.6235712570160388
04,3t2,7,155,7.0,5.0,0.55,1.0,True,0.3394041506289795
04,3t2,7,156,78.0,28.0,0.55,1.0,True,1.4752318067594388
04,3t2,7,157,5.0,10.0,1.0,0.55,True,1.875865065850121
04,3t2,7,158,10.0,20.0,1.0,0.55,True,0.890577325322738
04,3t2,7,159,10.0,12.0,1.0,0.55,False,2.310256271944155
04,3t2,7,160,20.0,22.0,1.0,0.55,False,0.8738363705996903
04,3t2,7,161,14.0,39.0,1.0,0.55,True,1.475042256951383
04,3t2,7,162,5.0,14.0,1.0,0.55,True,0.727029591768769
04,3t2,7,163,5.0,7.0,1.0,0.55,False,1.5584682808439538
04,3t2,7,164,20.0,30.0,1.0,0.55,False,0.706695327160503
04,3t2,7,165,14.0,21.0,1.0,0.55,False,1.0076057990791014
04,3t2,7,166,5.0,5.0,1.0,0.55,False,1.64197777897607
04,3t2,7,167,28.0,78.0,1.0,0.55,False,0.4062570723317549
04,3t2,7,168,7.0,22.0,1.0,0.55,True,0.7066880947359095
04,3t2,8,169,41.0,20.0,0.55,1.0,True,1.4456596257996353
04,3t2,8,170,32.0,10.0,0.55,1.0,False,1.959926940452533
04,3t2,8,171,65.0,20.0,0.55,1.0,True,1.658860067339447
04,3t2,8,172,16.0,7.0,0.55,1.0,False,1.8755374972615757
04,3t2,8,173,48.0,20.0,0.55,1.0,True,1.090796769154622
04,3t2,8,174,25.0,20.0,0.55,1.0,True,1.308122103828282
04,3t2,8,175,11.0,10.0,0.55,1.0,True,2.0595511858309834
04,3t2,8,176,16.0,7.0,0.55,1.0,True,2.0761089191164643
04,3t2,8,177,15.0,14.0,0.55,1.0,True,1.8590424449930651
04,3t2,8,178,67.0,28.0,0.55,1.0,True,0.974054578893572
04,3t2,8,179,57.0,28.0,0.55,1.0,True,0.9246968935831036
04,3t2,8,180,9.0,7.0,0.55,1.0,True,1.1411127507953438
04,3t2,8,181,10.0,12.0,1.0,0.55,False,1.307880420287745
04,3t2,8,182,28.0,36.0,1.0,0.55,False,0.5062143106188159
04,3t2,8,183,14.0,24.0,1.0,0.55,True,1.9593685369618183
04,3t2,8,184,10.0,11.0,1.0,0.55,False,1.2576961290551196
04,3t2,8,185,7.0,10.0,1.0,0.55,False,1.1577174948452011
04,3t2,8,186,20.0,65.0,1.0,0.55,False,0.9915651841902218
04,3t2,8,187,10.0,32.0,1.0,0.55,True,1.3248977139210183
04,3t2,8,188,14.0,15.0,1.0,0.55,False,1.0909941540912769
04,3t2,8,189,14.0,18.0,1.0,0.55,False,2.159866429162321
04,3t2,8,190,28.0,91.0,1.0,0.55,False,0.8575365938104369
04,3t2,8,191,28.0,67.0,1.0,0.55,False,0.9752316560834516
04,3t2,8,192,5.0,8.0,1.0,0.55,False,1.057691849870935
04,7t2,1,1,10.0,21.0,1.0,0.55,True,1.0435344000002296
04,7t2,1,2,28.0,70.0,1.0,0.55,False,1.1189218999998047
04,7t2,1,3,10.0,25.0,1.0,0.55,True,0.9081484999996974
04,7t2,1,4,20.0,42.0,1.0,0.55,True,1.7098618999998507
04,7t2,1,5,28.0,42.0,1.0,0.55,False,0.8432741999999962
04,7t2,1,6,20.0,59.0,1.0,0.55,True,0.7404588000003969
04,7t2,1,7,5.0,7.0,1.0,0.55,False,1.2581627999997949
04,7t2,1,8,28.0,36.0,1.0,0.55,False,0.6409184999997422
04,7t2,1,9,5.0,9.0,1.0,0.55,True,2.9559745999999905
04,7t2,1,10,7.0,10.0,1.0,0.55,False,3.3407240000001366
04,7t2,1,11,7.0,9.0,1.0,0.55,False,3.274725000000217
04,7t2,1,12,10.0,12.0,1.0,0.55,False,1.992042500000025
04,7t2,1,13,10.0,10.0,0.55,1.0,True,1.1258922000002372
04,7t2,1,14,50.0,20.0,0.55,1.0,True,1.2746006000002126
04,7t2,1,15,9.0,5.0,0.55,1.0,True,1.3248499999999694
04,7t2,1,16,42.0,28.0,0.55,1.0,True,1.3596904000000904
04,7t2,1,17,42.0,20.0,0.55,1.0,False,2.3260026999996626
04,7t2,1,18,9.0,7.0,0.55,1.0,True,2.0088551999997435
04,7t2,1,19,10.0,5.0,0.55,1.0,True,2.025217599999906
04,7t2,1,20,29.0,10.0,0.55,1.0,True,2.0404262000001836
04,7t2,1,21,35.0,14.0,0.55,1.0,False,1.658318600000257
04,7t2,1,22,10.0,7.0,0.55,1.0,False,2.0242779999998675
04,7t2,1,23,12.0,10.0,0.55,1.0,True,2.8915680999999154
04,7t2,1,24,18.0,14.0,0.55,1.0,True,1.0586983999996846
04,7t2,2,25,14.0,35.0,1.0,0.55,True,1.2614871000000782
04,7t2,2,26,7.0,9.0,1.0,0.55,False,1.2572728000000095
04,7t2,2,27,28.0,83.0,1.0,0.55,False,1.1494719000002078
04,7t2,2,28,20.0,42.0,1.0,0.55,True,0.991943599999999
04,7t2,2,29,10.0,15.0,1.0,0.55,True,1.975436300000197
04,7t2,2,30,10.0,35.0,1.0,0.55,True,1.1075671999997212
04,7t2,2,31,5.0,5.0,1.0,0.55,False,2.4713704000000547
04,7t2,2,32,14.0,21.0,1.0,0.55,False,
04,7t2,2,33,20.0,70.0,1.0,0.55,True,3.037171700000272
04,7t2,2,34,10.0,10.0,1.0,0.55,False,2.958950499999901
04,7t2,2,35,28.0,98.0,1.0,0.55,True,2.0263835999999458
04,7t2,2,36,5.0,17.0,1.0,0.55,True,2.09167840000012
04,7t2,2,37,42.0,20.0,0.55,1.0,True,2.1080975999997804
04,7t2,2,38,49.0,14.0,0.55,1.0,False,1.007621899999748
04,7t2,2,39,29.0,14.0,0.55,1.0,False,1.5748819000000367
04,7t2,2,40,6.0,5.0,0.55,1.0,True,2.622797100000298
04,7t2,2,41,7.0,5.0,0.55,1.0,True,1.6748450999998852
04,7t2,2,42,5.0,5.0,0.55,1.0,True,0.5743613999997592
04,7t2,2,43,12.0,7.0,0.55,1.0,True,1.24175809999997
04,7t2,2,44,9.0,5.0,0.55,1.0,True,0.7576868999999533
04,7t2,2,45,5.0,5.0,0.55,1.0,True,2.5573598999999376
04,7t2,2,46,35.0,14.0,0.55,1.0,True,1.4413604000001214
04,7t2,2,47,12.0,7.0,0.55,1.0,False,1.0566374999997947
04,7t2,2,48,41.0,14.0,0.55,1.0,False,1.5915843000003065
04,7t2,3,49,25.0,10.0,0.55,1.0,False,1.0938977999999224
04,7t2,3,50,21.0,14.0,0.55,1.0,True,1.075986499999999
04,7t2,3,51,25.0,10.0,0.55,1.0,False,1.624742899999994
04,7t2,3,52,7.0,7.0,0.55,1.0,True,0.6246284999997584
04,7t2,3,53,12.0,5.0,0.55,1.0,True,2.741429700000026
04,7t2,3,54,36.0,28.0,0.55,1.0,True,1.5584369000003022
04,7t2,3,55,17.0,7.0,0.55,1.0,False,0.7404237999999168
04,7t2,3,56,17.0,5.0,0.55,1.0,False,1.0083712999998935
04,7t2,3,57,98.0,28.0,0.55,1.0,False,1.2745137000001705
04,7t2,3,58,15.0,14.0,0.55,1.0,True,2.4559878000000026
04,7t2,3,59,7.0,7.0,0.55,1.0,False,2.091482200000428
04,7t2,3,60,14.0,7.0,0.55,1.0,False,0.9973234999997374
04,7t2,3,61,10.0,29.0,1.0,0.55,True,0.908854500000416
04,7t2,3,62,10.0,18.0,1.0,0.55,True,1.9086300000008407
04,7t2,3,63,28.0,70.0,1.0,0.55,False,0.6863537999998073
04,7t2,3,64,5.0,12.0,1.0,0.55,True,1.274786599999942
04,7t2,3,65,7.0,17.0,1.0,0.55,True,0.8586130999992747
04,7t2,3,66,20.0,36.0,1.0,0.55,True,1.7428311000003305
04,7t2,3,67,20.0,25.0,1.0,0.55,False,0.8258779999996477
04,7t2,3,68,14.0,41.0,1.0,0.55,True,0.7922128000000157
04,7t2,3,69,28.0,59.0,1.0,0.55,False,2.0714772000001176
04,7t2,3,70,28.0,83.0,1.0,0.55,True,1.1328143999999156
04,7t2,3,71,10.0,12.0,1.0,0.55,True,2.5580376000007163
04,7t2,3,72,28.0,50.0,1.0,0.55,False,0.5221292999995057
04,7t2,4,73,7.0,5.0,0.55,1.0,True,0.5343152999994345
04,7t2,4,74,14.0,5.0,0.55,1.0,False,2.5740586000001713
04,7t2,4,75,70.0,20.0,0.55,1.0,True,0.5899834000001718
04,7t2,4,76,17.0,7.0,0.55,1.0,False,0.8412442999997438
04,7t2,4,77,42.0,28.0,0.55,1.0,True,0.7587593999996756
04,7t2,4,78,36.0,20.0,0.55,1.0,True,1.6739500000003176
04,7t2,4,79,70.0,28.0,0.55,1.0,True,1.4072175000001153
04,7t2,4,80,50.0,20.0,0.55,1.0,False,1.4253311000002211
04,7t2,4,81,29.0,10.0,0.55,1.0,False,1.6078514999999245
04,7t2,4,82,36.0,20.0,0.55,1.0,True,0.7916649999997389
04,7t2,4,83,9.0,7.0,0.55,1.0,False,1.4911984999999106
04,7t2,4,84,20.0,7.0,0.55,1.0,False,0.558167199999815
04,7t2,4,85,20.0,50.0,1.0,0.55,True,2.2070223000000624
04,7t2,4,86,14.0,29.0,1.0,0.55,True,0.9921935000002406
04,7t2,4,87,14.0,21.0,1.0,0.55,True,1.308440699999693
04,7t2,4,88,5.0,17.0,1.0,0.55,True,0.7076757999993788
04,7t2,4,89,14.0,29.0,1.0,0.55,True,1.2413421000001108
04,7t2,4,90,28.0,98.0,1.0,0.55,False,1.810045700000046
04,7t2,4,91,5.0,6.0,1.0,0.55,False,2.1915880000005927
04,7t2,4,92,7.0,24.0,1.0,0.55,True,0.7740039999998771
04,7t2,4,93,20.0,70.0,1.0,0.55,False,1.7030167999992043
04,7t2,4,94,14.0,35.0,1.0,0.55,True,0.6924866999997903
04,7t2,4,95,7.0,20.0,1.0,0.55,True,2.2574666999998954
04,7t2,4,96,14.0,25.0,1.0,0.55,True,1.3920796000002156
04,7t2,5,97,83.0,28.0,0.55,1.0,True,1.5909865000003265
04,7t2,5,98,24.0,7.0,0.55,1.0,False,1.3741054000001895
04,7t2,5,99,59.0,28.0,0.55,1.0,True,0.8915277000005588
04,7t2,5,100,10.0,5.0,0.55,1.0,True,1.375440099999672
04,7t2,5,101,30.0,28.0,0.55,1.0,True,0.8240564999996423
04,7t2,5,102,18.0,10.0,0.55,1.0,False,2.7243790000002406
04,7t2,5,103,41.0,14.0,0.55,1.0,True,3.474767700000484
04,7t2,5,104,14.0,5.0,0.55,1.0,False,1.6258979000004103
04,7t2,5,105,49.0,14.0,0.55,1.0,False,0.7585219000002326
04,7t2,5,106,12.0,5.0,0.55,1.0,False,
04,7t2,5,107,25.0,14.0,0.55,1.0,False,2.924360300000444
04,7t2,5,108,21.0,14.0,0.55,1.0,False,2.2249218000006294
04,7t2,5,109,14.0,25.0,1.0,0.55,True,1.341973300000035
04,7t2,5,110,20.0,30.0,1.0,0.55,False,0.8592216000005806
04,7t2,5,111,28.0,50.0,1.0,0.55,False,1.5236760999996193
04,7t2,5,112,28.0,36.0,1.0,0.55,True,1.3741681999999855
04,7t2,5,113,20.0,50.0,1.0,0.55,True,0.6727231000003826
04,7t2,5,114,5.0,9.0,1.0,0.55,True,1.6583788999996614
04,7t2,5,115,5.0,7.0,1.0,0.55,True,1.0742370999997206
04,7t2,5,116,7.0,17.0,1.0,0.55,True,0.9428341000002548
04,7t2,5,117,7.0,20.0,1.0,0.55,True,1.008501499999511
04,7t2,5,118,20.0,59.0,1.0,0.55,True,0.7735881999997218
04,7t2,5,119,14.0,18.0,1.0,0.55,True,2.074422599999707
04,7t2,5,120,20.0,21.0,1.0,0.55,False,0.7412011999995798
04,7t2,6,121,10.0,7.0,0.55,1.0,False,1.326245199999903
04,7t2,6,122,25.0,20.0,0.55,1.0,True,1.1428814000000784
04,7t2,6,123,21.0,20.0,0.55,1.0,True,0.8090073000003031
04,7t2,6,124,50.0,28.0,0.55,1.0,True,0.5421328000002461
04,7t2,6,125,30.0,20.0,0.55,1.0,True,0.757095500000105
04,7t2,6,126,25.0,14.0,0.55,1.0,False,0.5084003000001616
04,7t2,6,127,83.0,28.0,0.55,1.0,True,2.2749258999993174
04,7t2,6,128,59.0,28.0,0.55,1.0,True,1.159034999999676
04,7t2,6,129,70.0,28.0,0.55,1.0,True,2.5752677000000403
04,7t2,6,130,35.0,10.0,0.55,1.0,False,1.0750765000002502
04,7t2,6,131,18.0,10.0,0.55,1.0,False,1.4097916000000907
04,7t2,6,132,59.0,20.0,0.55,1.0,False,0.9074935999997537
04,7t2,6,133,14.0,49.0,1.0,0.55,True,0.857631500000025
04,7t2,6,134,20.0,21.0,1.0,0.55,False,2.441114500000367
04,7t2,6,135,10.0,35.0,1.0,0.55,True,0.7244430000000648
04,7t2,6,136,20.0,30.0,1.0,0.55,True,0.8918869999997696
04,7t2,6,137,7.0,24.0,1.0,0.55,True,0.7083158999994339
04,7t2,6,138,10.0,10.0,1.0,0.55,False,0.8246577999998408
04,7t2,6,139,14.0,49.0,1.0,0.55,True,0.8921159000001353
04,7t2,6,140,5.0,14.0,1.0,0.55,True,0.7575340000003052
04,7t2,6,141,14.0,41.0,1.0,0.55,True,1.3912227999999232
04,7t2,6,142,5.0,14.0,1.0,0.55,True,0.7085126000002333
04,7t2,6,143,5.0,10.0,1.0,0.55,True,3.12471480000022
04,7t2,6,144,28.0,42.0,1.0,0.55,False,0.6749338000000193
04,7t2,7,145,7.0,14.0,1.0,0.55,True,0.7614246000002858
04,7t2,7,146,10.0,25.0,1.0,0.55,True,0.7898265000003448
04,7t2,7,147,7.0,7.0,1.0,0.55,False,0.7576616999995167
04,7t2,7,148,14.0,15.0,1.0,0.55,False,0.9252338000005552
04,7t2,7,149,5.0,10.0,1.0,0.55,True,0.7740913999996337
04,7t2,7,150,5.0,12.0,1.0,0.55,True,0.5241130999993686
04,7t2,7,151,7.0,14.0,1.0,0.55,True,0.7740290000001693
04,7t2,7,152,14.0,18.0,1.0,0.55,True,0.7075061000005007
04,7t2,7,153,28.0,30.0,1.0,0.55,False,1.2244869000005565
04,7t2,7,154,14.0,15.0,1.0,0.55,True,1.3239512999998908
04,7t2,7,155,5.0,5.0,1.0,0.55,False,0.925539699999689
04,7t2,7,156,10.0,18.0,1.0,0.55,True,0.4752876000002857
04,7t2,7,157,15.0,10.0,0.55,1.0,False,0.6583337000001563
04,7t2,7,158,35.0,10.0,0.55,1.0,False,0.6805788000001769
04,7t2,7,159,98.0,28.0,0.55,1.0,False,0.707756399999198
04,7t2,7,160,12.0,10.0,0.55,1.0,True,0.8254424999994967
04,7t2,7,161,21.0,10.0,0.55,1.0,True,1.6243110999994317
04,7t2,7,162,15.0,14.0,0.55,1.0,True,1.0257424999999785
04,7t2,7,163,59.0,20.0,0.55,1.0,True,1.5917226999999912
04,7t2,7,164,10.0,10.0,0.55,1.0,True,3.091536400000223
04,7t2,7,165,30.0,20.0,0.55,1.0,True,0.6911590999997657
04,7t2,7,166,70.0,20.0,0.55,1.0,True,1.8116078000002176
04,7t2,7,167,29.0,14.0,0.55,1.0,False,1.4088990000000765
04,7t2,7,168,25.0,20.0,0.55,1.0,True,0.6587097999999969
04,7t2,8,169,15.0,10.0,0.55,1.0,True,0.910600400000476
04,7t2,8,170,14.0,7.0,0.55,1.0,True,0.6746064999997543
04,7t2,8,171,21.0,20.0,0.55,1.0,True,0.6767798999999286
04,7t2,8,172,50.0,28.0,0.55,1.0,True,0.7212337000000844
04,7t2,8,173,24.0,7.0,0.55,1.0,False,1.8920792999997504
04,7t2,8,174,17.0,5.0,0.55,1.0,False,0.9395254999999594
04,7t2,8,175,18.0,14.0,0.55,1.0,True,0.6580868000000777
04,7t2,8,176,21.0,10.0,0.55,1.0,False,1.6083269000000655
04,7t2,8,177,6.0,5.0,0.55,1.0,True,1.8254162000002907
04,7t2,8,178,20.0,7.0,0.55,1.0,False,0.4741196000004493
04,7t2,8,179,30.0,28.0,0.55,1.0,True,0.8903041999992638
04,7t2,8,180,36.0,28.0,0.55,1.0,True,1.9738422999998304
04,7t2,8,181,10.0,21.0,1.0,0.55,True,0.4909832000003007
04,7t2,8,182,7.0,7.0,1.0,0.55,False,0.5246415999999954
04,7t2,8,183,5.0,6.0,1.0,0.55,False,2.488195599999983
04,7t2,8,184,10.0,29.0,1.0,0.55,True,0.4580798000005757
04,7t2,8,185,28.0,59.0,1.0,0.55,False,0.8571185000000696
04,7t2,8,186,7.0,12.0,1.0,0.55,True,0.6248807000001761
04,7t2,8,187,7.0,12.0,1.0,0.55,True,0.7769469999993817
04,7t2,8,188,7.0,10.0,1.0,0.55,False,1.525655300000892
04,7t2,8,189,20.0,36.0,1.0,0.55,False,0.573691499999768
04,7t2,8,190,10.0,15.0,1.0,0.55,True,0.6583335000004809
04,7t2,8,191,28.0,30.0,1.0,0.55,False,0.9419780999996874
04,7t2,8,192,20.0,25.0,1.0,0.55,False,0.4754985999998098
05,3t2,1,1,22.0,10.0,0.55,1.0,True,0.9954354356887372
05,3t2,1,2,83.0,28.0,0.55,1.0,True,0.9072778990048392
05,3t2,1,3,26.0,7.0,0.55,1.0,False,1.075221741633854
05,3t2,1,4,28.0,14.0,0.55,1.0,True,0.7902666022582707
05,3t2,1,5,24.0,14.0,0.55,1.0,True,0.9741883787592088
05,3t2,1,6,38.0,10.0,0.55,1.0,False,0.4899645581044751
05,3t2,1,7,8.0,5.0,0.55,1.0,True,2.159835992706576
05,3t2,1,8,16.0,5.0,0.55,1.0,False,0.8739584177746735
05,3t2,1,9,14.0,5.0,0.55,1.0,True,1.5920809766430182
05,3t2,1,10,83.0,28.0,0.55,1.0,False,1.0075593910187308
05,3t2,1,11,28.0,14.0,0.55,1.0,False,1.057774420056404
05,3t2,1,12,16.0,7.0,0.55,1.0,True,1.0577352444215364
05,3t2,1,13,28.0,49.0,1.0,0.55,False,0.5069128423455993
05,3t2,1,14,14.0,24.0,1.0,0.55,False,1.4584308831799715
05,3t2,1,15,10.0,26.0,1.0,0.55,False,0.8573066629633388
05,3t2,1,16,7.0,20.0,1.0,0.55,True,1.7759060194566416
05,3t2,1,17,5.0,16.0,1.0,0.55,True,0.8574621601036938
05,3t2,1,18,7.0,14.0,1.0,0.55,False,
05,3t2,1,19,5.0,7.0,1.0,0.55,False,1.0910333297269972
05,3t2,1,20,7.0,26.0,1.0,0.55,True,0.9739102317435028
05,3t2,1,21,14.0,47.0,1.0,0.55,False,0.7240706258381238
05,3t2,1,22,14.0,36.0,1.0,0.55,True,0.8403885138231999
05,3t2,1,23,10.0,38.0,1.0,0.55,True,0.6903518544695544
05,3t2,1,24,10.0,29.0,1.0,0.55,False,0.9573371295518882
05,3t2,2,25,20.0,7.0,0.55,1.0,True,0.8614755533490062
05,3t2,2,26,7.0,5.0,0.55,1.0,True,0.4898786730554931
05,3t2,2,27,94.0,28.0,0.55,1.0,True,1.157689770547222
05,3t2,2,28,59.0,20.0,0.55,1.0,True,0.8237051171508938
05,3t2,2,29,10.0,5.0,0.55,1.0,True,1.4917922522035951
05,3t2,2,30,53.0,14.0,0.55,1.0,False,1.64313587105066
05,3t2,2,31,49.0,28.0,0.55,1.0,True,0.6103329055149374
05,3t2,2,32,67.0,20.0,0.55,1.0,True,0.4236073588708535
05,3t2,2,33,107.0,28.0,0.55,1.0,True,0.9241864049090508
05,3t2,2,34,41.0,14.0,0.55,1.0,True,0.9574459172818308
05,3t2,2,35,36.0,14.0,0.55,1.0,False,1.6755094113450753
05,3t2,2,36,14.0,5.0,0.55,1.0,False,0.8070717447517097
05,3t2,2,37,7.0,23.0,1.0,0.55,True,0.8071669716828467
05,3t2,2,38,10.0,38.0,1.0,0.55,False,1.3413340027346408
05,3t2,2,39,14.0,41.0,1.0,0.55,False,
05,3t2,2,40,5.0,14.0,1.0,0.55,False,1.809205310168153
05,3t2,2,41,14.0,32.0,1.0,0.55,True,0.8403448179233806
05,3t2,2,42,20.0,59.0,1.0,0.55,True,1.4253331963191158
05,3t2,2,43,10.0,22.0,1.0,0.55,False,1.3416236010907596
05,3t2,2,44,28.0,107.0,1.0,0.55,False,1.1414864260932518
05,3t2,2,45,28.0,83.0,1.0,0.55,True,0.859294977170066
05,3t2,2,46,7.0,14.0,1.0,0.55,True,2.1933835966792685
05,3t2,2,47,20.0,52.0,1.0,0.55,True,0.9412175606904044
05,3t2,2,48,20.0,76.0,1.0,0.55,True,0.9414245888583536
05,3t2,3,49,45.0,20.0,0.55,1.0,True,1.1289469076709828
05,3t2,3,50,40.0,20.0,0.55,1.0,True,1.0408559695697406
05,3t2,3,51,32.0,14.0,0.55,1.0,True,0.6900056021167984
05,3t2,3,52,33.0,10.0,0.55,1.0,False,0.6745113366760052
05,3t2,3,53,14.0,7.0,0.55,1.0,True,0.907462627195855
05,3t2,3,54,11.0,5.0,0.55,1.0,True,2.109866564769618
05,3t2,3,55,19.0,5.0,0.55,1.0,False,0.8571053604628247
05,3t2,3,56,8.0,5.0,0.55,1.0,True,0.3731687273539137
05,3t2,3,57,20.0,10.0,0.55,1.0,True,0.6402597766555118
05,3t2,3,58,59.0,20.0,0.55,1.0,False,0.4899118216708302
05,3t2,3,59,13.0,5.0,0.55,1.0,False,0.706861070235334
05,3t2,3,60,20.0,7.0,0.55,1.0,True,0.6567201735542767
05,3t2,3,61,28.0,94.0,1.0,0.55,False,0.8909823411304956
05,3t2,3,62,28.0,49.0,1.0,0.55,True,0.7743182007889118
05,3t2,3,63,20.0,31.0,1.0,0.55,False,0.9574664091524028
05,3t2,3,64,28.0,94.0,1.0,0.55,True,0.8243174624803942
05,3t2,3,65,7.0,20.0,1.0,0.55,False,1.358413977384771
05,3t2,3,66,5.0,10.0,1.0,0.55,True,0.8404834394041245
05,3t2,3,67,10.0,20.0,1.0,0.55,False,0.9743071110715392
05,3t2,3,68,28.0,43.0,1.0,0.55,True,0.8072329675633796
05,3t2,3,69,5.0,10.0,1.0,0.55,False,0.7238548584882665
05,3t2,3,70,10.0,15.0,1.0,0.55,False,1.1245700850631692
05,3t2,3,71,10.0,33.0,1.0,0.55,True,0.8072326662132241
05,3t2,3,72,14.0,36.0,1.0,0.55,False,0.7071371077946083
05,3t2,4,73,36.0,14.0,0.55,1.0,False,1.5039424250753726
05,3t2,4,74,52.0,20.0,0.55,1.0,True,1.3424242908222368
05,3t2,4,75,15.0,10.0,0.55,1.0,True,0.7402206311544433
05,3t2,4,76,17.0,10.0,0.55,1.0,True,0.9574248227072816
05,3t2,4,77,16.0,5.0,0.55,1.0,False,0.8568657863797711
05,3t2,4,78,31.0,20.0,0.55,1.0,True,0.9071971369230596
05,3t2,4,79,45.0,20.0,0.55,1.0,True,0.8574299155407061
05,3t2,4,80,7.0,5.0,0.55,1.0,True,0.9572509431527578
05,3t2,4,81,47.0,14.0,0.55,1.0,True,0.4732862843993644
05,3t2,4,82,14.0,7.0,0.55,1.0,True,1.759321465928224
05,3t2,4,83,24.0,14.0,0.55,1.0,True,0.7070334430354706
05,3t2,4,84,10.0,5.0,0.55,1.0,True,1.8256726381387125
05,3t2,4,85,28.0,64.0,1.0,0.55,False,0.4061871588892529
05,3t2,4,86,14.0,24.0,1.0,0.55,False,0.25628249129295
05,3t2,4,87,10.0,17.0,1.0,0.55,True,1.1580266810179012
05,3t2,4,88,14.0,28.0,1.0,0.55,False,0.9075677987129892
05,3t2,4,89,5.0,11.0,1.0,0.55,False,1.1579920256481273
05,3t2,4,90,20.0,67.0,1.0,0.55,True,0.5943504513797961
05,3t2,4,91,10.0,22.0,1.0,0.55,False,1.7429412284091086
05,3t2,4,92,7.0,10.0,1.0,0.55,False,1.658751279612261
05,3t2,4,93,20.0,31.0,1.0,0.55,False,1.158048378294552
05,3t2,4,94,10.0,15.0,1.0,0.55,False,0.5735810358582967
05,3t2,4,95,7.0,16.0,1.0,0.55,False,0.8074870064955917
05,3t2,4,96,28.0,56.0,1.0,0.55,True,0.5399704495157494
05,3t2,5,97,35.0,20.0,0.55,1.0,False,1.7633903077676223
05,3t2,5,98,13.0,5.0,0.55,1.0,False,0.7737887269995483
05,3t2,5,99,56.0,28.0,0.55,1.0,False,0.7937770406060736
05,3t2,5,100,43.0,28.0,0.55,1.0,True,1.459512130735689
05,3t2,5,101,35.0,20.0,0.55,1.0,True,0.5730768755547615
05,3t2,5,102,11.0,5.0,0.55,1.0,False,0.9742269516937228
05,3t2,5,103,40.0,20.0,0.55,1.0,True,1.3414370647933538
05,3t2,5,104,38.0,10.0,0.55,1.0,False,0.7569528466974305
05,3t2,5,105,64.0,28.0,0.55,1.0,True,1.1243811379572437
05,3t2,5,106,10.0,7.0,0.55,1.0,False,1.575394265109935
05,3t2,5,107,76.0,20.0,0.55,1.0,True,0.5566918164204537
05,3t2,5,108,23.0,7.0,0.55,1.0,True,1.6922642282134177
05,3t2,5,109,7.0,18.0,1.0,0.55,False,1.558938388476264
05,3t2,5,110,20.0,59.0,1.0,0.55,True,0.8075677685756375
05,3t2,5,111,20.0,67.0,1.0,0.55,False,1.2920501484295528
05,3t2,5,112,5.0,8.0,1.0,0.55,False,0.92382177014224
05,3t2,5,113,28.0,83.0,1.0,0.55,False,0.3058833668983425
05,3t2,5,114,5.0,16.0,1.0,0.55,False,0.723954605684412
05,3t2,5,115,10.0,26.0,1.0,0.55,False,0.7904745344803814
05,3t2,5,116,7.0,26.0,1.0,0.55,True,0.5901881907157644
05,3t2,5,117,7.0,12.0,1.0,0.55,False,1.3750711565153324
05,3t2,5,118,14.0,21.0,1.0,0.55,False,0.840698001349665
05,3t2,5,119,20.0,45.0,1.0,0.55,False,0.4398324006015741
05,3t2,5,120,14.0,21.0,1.0,0.55,False,0.9241876103133108
05,3t2,6,121,28.0,73.0,1.0,0.55,False,0.761722631072189
05,3t2,6,122,7.0,12.0,1.0,0.55,True,1.4591716040522371
05,3t2,6,123,10.0,33.0,1.0,0.55,True,1.2411453268432524
05,3t2,6,124,28.0,64.0,1.0,0.55,True,0.7070783443414257
05,3t2,6,125,28.0,43.0,1.0,0.55,False,0.6899206211200948
05,3t2,6,126,14.0,28.0,1.0,0.55,False,0.5398173631856622
05,3t2,6,127,5.0,19.0,1.0,0.55,False,1.2578281208152475
05,3t2,6,128,5.0,14.0,1.0,0.55,True,1.107393678077642
05,3t2,6,129,7.0,10.0,1.0,0.55,False,1.8423572402152784
05,3t2,6,130,28.0,107.0,1.0,0.55,True,1.4420545632237918
05,3t2,6,131,20.0,45.0,1.0,0.55,False,0.3890770491343573
05,3t2,6,132,10.0,29.0,1.0,0.55,False,1.107530792803999
05,3t2,6,133,56.0,28.0,0.55,1.0,False,0.8069078097850593
05,3t2,6,134,23.0,7.0,0.55,1.0,False,0.8403695287070434
05,3t2,6,135,16.0,7.0,0.55,1.0,True,0.623663169086285
05,3t2,6,136,31.0,20.0,0.55,1.0,True,0.9411753715430676
05,3t2,6,137,32.0,14.0,0.55,1.0,True,1.1744231914944976
05,3t2,6,138,53.0,14.0,0.55,1.0,False,1.3248838517720287
05,3t2,6,139,20.0,10.0,0.55,1.0,True,1.1075419427925226
05,3t2,6,140,73.0,28.0,0.55,1.0,True,1.4583468062355678
05,3t2,6,141,10.0,7.0,0.55,1.0,False,1.4249760953280202
05,3t2,6,142,15.0,10.0,0.55,1.0,True,1.057799733545835
05,3t2,6,143,29.0,10.0,0.55,1.0,True,0.7234037359685317
05,3t2,6,144,18.0,7.0,0.55,1.0,False,1.0741670129700651
05,3t2,7,145,29.0,10.0,0.55,1.0,True,1.1619773932470707
05,3t2,7,146,76.0,20.0,0.55,1.0,True,0.940595873478742
05,3t2,7,147,12.0,7.0,0.55,1.0,True,0.4397742398487025
05,3t2,7,148,18.0,7.0,0.55,1.0,False,1.7266384381109674
05,3t2,7,149,17.0,10.0,0.55,1.0,True,0.7903277765199164
05,3t2,7,150,21.0,14.0,0.55,1.0,True,1.1074901104111774
05,3t2,7,151,26.0,10.0,0.55,1.0,True,0.5737374370528414
05,3t2,7,152,107.0,28.0,0.55,1.0,True,1.4252370653357502
05,3t2,7,153,26.0,7.0,0.55,1.0,False,1.4417785256646312
05,3t2,7,154,49.0,28.0,0.55,1.0,True,1.842622730488074
05,3t2,7,155,19.0,5.0,0.55,1.0,False,1.090961306827012
05,3t2,7,156,12.0,7.0,0.55,1.0,True,0.9907605768948996
05,3t2,7,157,28.0,73.0,1.0,0.55,False,0.8408330066176575
05,3t2,7,158,5.0,8.0,1.0,0.55,False,1.5584731024609937
05,3t2,7,159,5.0,7.0,1.0,0.55,False,1.057632182362738
05,3t2,7,160,10.0,20.0,1.0,0.55,True,1.558578575326436
05,3t2,7,161,5.0,11.0,1.0,0.55,False,1.0413089001922344
05,3t2,7,162,20.0,35.0,1.0,0.55,False,1.0075813896437469
05,3t2,7,163,20.0,76.0,1.0,0.55,False,0.4062775642032648
05,3t2,7,164,14.0,32.0,1.0,0.55,False,1.6924848171802296
05,3t2,7,165,7.0,18.0,1.0,0.55,False,1.308236918577677
05,3t2,7,166,20.0,52.0,1.0,0.55,False,0.9245404923894966
05,3t2,7,167,14.0,47.0,1.0,0.55,False,1.2254295683833334
05,3t2,7,168,20.0,35.0,1.0,0.55,True,3.0951500863830006
05,3t2,8,169,20.0,40.0,1.0,0.55,False,0.693952095429264
05,3t2,8,170,28.0,56.0,1.0,0.55,False,1.3083206941682874
05,3t2,8,171,5.0,19.0,1.0,0.55,True,1.5425879847116448
05,3t2,8,172,14.0,53.0,1.0,0.55,False,1.7925987580129004
05,3t2,8,173,14.0,41.0,1.0,0.55,True,1.6755892693709171
05,3t2,8,174,5.0,13.0,1.0,0.55,True,1.7425112004639232
05,3t2,8,175,20.0,40.0,1.0,0.55,False,1.3082137145465964
05,3t2,8,176,7.0,23.0,1.0,0.55,True,1.0741959426686662
05,3t2,8,177,10.0,17.0,1.0,0.55,False,0.9237961553026252
05,3t2,8,178,5.0,13.0,1.0,0.55,False,1.3581864573425264
05,3t2,8,179,7.0,16.0,1.0,0.55,True,1.0073635128373724
05,3t2,8,180,14.0,53.0,1.0,0.55,True,1.1416386083728869
05,3t2,8,181,94.0,28.0,0.55,1.0,True,1.391576153368078
05,3t2,8,182,67.0,20.0,0.55,1.0,True,2.009421137787257
05,3t2,8,183,33.0,10.0,0.55,1.0,True,1.1410521792350323
05,3t2,8,184,43.0,28.0,0.55,1.0,False,0.6238711013102431
05,3t2,8,185,41.0,14.0,0.55,1.0,True,2.3936099715847377
05,3t2,8,186,22.0,10.0,0.55,1.0,False,0.6731962407066021
05,3t2,8,187,73.0,28.0,0.55,1.0,True,0.8569384119819006
05,3t2,8,188,64.0,28.0,0.55,1.0,True,1.0242093377237325
05,3t2,8,189,52.0,20.0,0.55,1.0,True,1.2081488939365954
05,3t2,8,190,21.0,14.0,0.55,1.0,True,0.9404346506707384
05,3t2,8,191,26.0,10.0,0.55,1.0,True,1.057580651335229
05,3t2,8,192,47.0,14.0,0.55,1.0,True,0.8905348348253028
05,7t2,1,1,30.0,14.0,0.55,1.0,True,0.9272024999991012
05,7t2,1,2,24.0,14.0,0.55,1.0,True,0.9419706000007864
05,7t2,1,3,13.0,5.0,0.55,1.0,False,1.241326600000349
05,7t2,1,4,56.0,14.0,0.55,1.0,False,1.010857200002647
05,7t2,1,5,12.0,7.0,0.55,1.0,False,1.0419535000000906
05,7t2,1,6,48.0,28.0,0.55,1.0,True,1.6090265000020878
05,7t2,1,7,39.0,14.0,0.55,1.0,False,0.6910547999978007
05,7t2,1,8,17.0,10.0,0.55,1.0,False,0.6573929000005592
05,7t2,1,9,44.0,14.0,0.55,1.0,True,1.32461999999947
05,7t2,1,10,12.0,5.0,0.55,1.0,False,1.241788600000291
05,7t2,1,11,39.0,14.0,0.55,1.0,False,1.2584879999994882
05,7t2,1,12,71.0,20.0,0.55,1.0,True,1.442769599998428
05,7t2,1,13,20.0,80.0,1.0,0.55,False,0.8344845999999961
05,7t2,1,14,14.0,44.0,1.0,0.55,False,0.8756189999985793
05,7t2,1,15,28.0,88.0,1.0,0.55,True,0.7472888999982388
05,7t2,1,16,20.0,71.0,1.0,0.55,True,0.8030665000005968
05,7t2,1,17,14.0,56.0,1.0,0.55,False,0.9202934000022652
05,7t2,1,18,28.0,48.0,1.0,0.55,False,0.7580182999990939
05,7t2,1,19,20.0,34.0,1.0,0.55,False,1.2095583000009356
05,7t2,1,20,20.0,55.0,1.0,0.55,True,0.906706399997347
05,7t2,1,21,14.0,49.0,1.0,0.55,True,0.6610172000000603
05,7t2,1,22,5.0,13.0,1.0,0.55,False,1.2735323999986576
05,7t2,1,23,5.0,8.0,1.0,0.55,False,1.5253282000012405
05,7t2,1,24,7.0,19.0,1.0,0.55,True,1.1919023000009474
05,7t2,2,25,20.0,49.0,1.0,0.55,False,0.8278288000001375
05,7t2,2,26,5.0,9.0,1.0,0.55,False,1.1084956000013335
05,7t2,2,27,20.0,44.0,1.0,0.55,True,0.8249942000002193
05,7t2,2,28,5.0,11.0,1.0,0.55,False,1.008674500000808
05,7t2,2,29,7.0,17.0,1.0,0.55,True,0.7905375000009229
05,7t2,2,30,7.0,28.0,1.0,0.55,True,0.7756589999989956
05,7t2,2,31,28.0,112.0,1.0,0.55,True,0.7593336999998428
05,7t2,2,32,7.0,24.0,1.0,0.55,False,1.0404482999983742
05,7t2,2,33,20.0,71.0,1.0,0.55,False,0.9696516000003612
05,7t2,2,34,10.0,19.0,1.0,0.55,False,1.6078369000024395
05,7t2,2,35,28.0,61.0,1.0,0.55,False,0.8561067000009928
05,7t2,2,36,7.0,12.0,1.0,0.55,False,1.342457499999
05,7t2,2,37,19.0,7.0,0.55,1.0,True,2.4417292999969504
05,7t2,2,38,78.0,28.0,0.55,1.0,True,0.6267570999989402
05,7t2,2,39,24.0,14.0,0.55,1.0,True,0.8244330000015907
05,7t2,2,40,34.0,20.0,0.55,1.0,False,0.5771929000002558
05,7t2,2,41,69.0,28.0,0.55,1.0,True,0.558395300002303
05,7t2,2,42,9.0,5.0,0.55,1.0,False,1.108939099998679
05,7t2,2,43,44.0,20.0,0.55,1.0,True,0.6113848999993934
05,7t2,2,44,24.0,10.0,0.55,1.0,False,1.1384849000023678
05,7t2,2,45,34.0,14.0,0.55,1.0,True,0.6246486000018194
05,7t2,2,46,19.0,10.0,0.55,1.0,True,0.492159299999912
05,7t2,2,47,61.0,28.0,0.55,1.0,True,1.05895860000237
05,7t2,2,48,9.0,5.0,0.55,1.0,False,1.4258594999992056
05,7t2,3,49,28.0,99.0,1.0,0.55,False,1.1648630999989145
05,7t2,3,50,20.0,34.0,1.0,0.55,False,1.4247032000021136
05,7t2,3,51,14.0,34.0,1.0,0.55,False,1.0227658000003146
05,7t2,3,52,14.0,24.0,1.0,0.55,False,1.0588602000025276
05,7t2,3,53,14.0,24.0,1.0,0.55,False,0.6122182999970391
05,7t2,3,54,10.0,22.0,1.0,0.55,False,0.7746383000012287
05,7t2,3,55,28.0,78.0,1.0,0.55,True,1.2013103999997838
05,7t2,3,56,7.0,15.0,1.0,0.55,False,1.774386999997688
05,7t2,3,57,10.0,35.0,1.0,0.55,True,1.1089949000015622
05,7t2,3,58,20.0,44.0,1.0,0.55,False,1.5062984000032884
05,7t2,3,59,10.0,31.0,1.0,0.55,True,1.6745578999980637
05,7t2,3,60,5.0,17.0,1.0,0.55,True,1.0718746999991424
05,7t2,3,61,55.0,20.0,0.55,1.0,True,2.1915814000021783
05,7t2,3,62,13.0,7.0,0.55,1.0,False,2.025360300001921
05,7t2,3,63,13.0,5.0,0.55,1.0,False,1.7578782999989355
05,7t2,3,64,12.0,7.0,0.55,1.0,True,1.3418055000001914
05,7t2,3,65,71.0,20.0,0.55,1.0,False,1.0087334999989253
05,7t2,3,66,22.0,10.0,0.55,1.0,True,1.3900469000000155
05,7t2,3,67,11.0,5.0,0.55,1.0,True,0.9079056000009588
05,7t2,3,68,99.0,28.0,0.55,1.0,True,1.073333399999683
05,7t2,3,69,13.0,7.0,0.55,1.0,False,1.6246620000019902
05,7t2,3,70,22.0,7.0,0.55,1.0,True,0.992152499999122
05,7t2,3,71,56.0,14.0,0.55,1.0,True,2.6583434000021953
05,7t2,3,72,17.0,7.0,0.55,1.0,False,
05,7t2,4,73,17.0,5.0,0.55,1.0,False,1.0772136999985342
05,7t2,4,74,44.0,20.0,0.55,1.0,True,1.1246242999986862
05,7t2,4,75,39.0,20.0,0.55,1.0,True,0.5908854000008432
05,7t2,4,76,15.0,5.0,0.55,1.0,False,0.9896195999972406
05,7t2,4,77,80.0,20.0,0.55,1.0,True,0.9085565999994144
05,7t2,4,78,112.0,28.0,0.55,1.0,True,1.541220299997789
05,7t2,4,79,15.0,7.0,0.55,1.0,True,1.4589428999970693
05,7t2,4,80,69.0,28.0,0.55,1.0,True,0.6747615999993428
05,7t2,4,81,49.0,20.0,0.55,1.0,True,0.4756579999993846
05,7t2,4,82,44.0,14.0,0.55,1.0,True,1.3237095999974997
05,7t2,4,83,35.0,10.0,0.55,1.0,True,1.575046900001297
05,7t2,4,84,63.0,20.0,0.55,1.0,False,0.8243602000001999
05,7t2,4,85,20.0,49.0,1.0,0.55,True,2.6909188999997866
05,7t2,4,86,5.0,13.0,1.0,0.55,True,1.341682899997977
05,7t2,4,87,28.0,88.0,1.0,0.55,True,1.1139414000026877
05,7t2,4,88,10.0,19.0,1.0,0.55,False,1.173864300002549
05,7t2,4,89,28.0,54.0,1.0,0.55,True,0.9226307999996948
05,7t2,4,90,5.0,17.0,1.0,0.55,False,1.124657699998295
05,7t2,4,91,14.0,39.0,1.0,0.55,True,1.126781099999846
05,7t2,4,92,14.0,56.0,1.0,0.55,True,1.687112799998431
05,7t2,4,93,7.0,13.0,1.0,0.55,False,1.4078933000018878
05,7t2,4,94,20.0,55.0,1.0,0.55,False,1.072693900001468
05,7t2,4,95,28.0,69.0,1.0,0.55,False,0.5584668999981659
05,7t2,4,96,10.0,40.0,1.0,0.55,False,1.7074100999998336
05,7t2,5,97,10.0,27.0,1.0,0.55,False,
05,7t2,5,98,5.0,9.0,1.0,0.55,False,0.9774103999989164
05,7t2,5,99,5.0,20.0,1.0,0.55,True,0.8922247000009236
05,7t2,5,100,10.0,17.0,1.0,0.55,False,1.423187399999705
05,7t2,5,101,7.0,22.0,1.0,0.55,True,1.7413223999974434
05,7t2,5,102,10.0,27.0,1.0,0.55,False,1.2579905999992036
05,7t2,5,103,28.0,61.0,1.0,0.55,False,1.5222103999985706
05,7t2,5,104,28.0,54.0,1.0,0.55,False,1.6738456999992195
05,7t2,5,105,14.0,30.0,1.0,0.55,False,1.4921221000004152
05,7t2,5,106,10.0,22.0,1.0,0.55,True,3.057357800000318
05,7t2,5,107,20.0,39.0,1.0,0.55,False,0.9744081999998002
05,7t2,5,108,5.0,12.0,1.0,0.55,True,1.22294210000112
05,7t2,5,109,39.0,20.0,0.55,1.0,True,1.07479229999808
05,7t2,5,110,55.0,20.0,0.55,1.0,True,1.0589977000017825
05,7t2,5,111,22.0,7.0,0.55,1.0,False,0.8584373000011567
05,7t2,5,112,78.0,28.0,0.55,1.0,True,1.0225852000004068
05,7t2,5,113,112.0,28.0,0.55,1.0,True,0.508226999998385
05,7t2,5,114,27.0,14.0,0.55,1.0,True,0.9096805000008316
05,7t2,5,115,49.0,14.0,0.55,1.0,False,1.192724400003442
05,7t2,5,116,88.0,28.0,0.55,1.0,False,0.8245209000015166
05,7t2,5,117,28.0,7.0,0.55,1.0,False,1.7408885000004377
05,7t2,5,118,27.0,10.0,0.55,1.0,True,1.1910180000013495
05,7t2,5,119,8.0,5.0,0.55,1.0,False,0.8241871999998693
05,7t2,5,120,48.0,28.0,0.55,1.0,True,2.3411042999978235
05,7t2,6,121,5.0,11.0,1.0,0.55,False,0.759702399998794
05,7t2,6,122,28.0,69.0,1.0,0.55,False,0.6845880000000761
05,7t2,6,123,5.0,8.0,1.0,0.55,False,0.6742511999982526
05,7t2,6,124,14.0,49.0,1.0,0.55,True,1.524828699999489
05,7t2,6,125,28.0,99.0,1.0,0.55,False,0.2251326000004923
05,7t2,6,126,7.0,12.0,1.0,0.55,False,1.2242886999993203
05,7t2,6,127,5.0,15.0,1.0,0.55,False,1.757047999999486
05,7t2,6,128,7.0,13.0,1.0,0.55,False,1.1097025000017169
05,7t2,6,129,10.0,24.0,1.0,0.55,False,0.6752792000006593
05,7t2,6,130,7.0,19.0,1.0,0.55,False,1.5419160999990709
05,7t2,6,131,20.0,80.0,1.0,0.55,True,1.1163650999988022
05,7t2,6,132,14.0,44.0,1.0,0.55,True,2.1926994999994633
05,7t2,6,133,54.0,28.0,0.55,1.0,True,0.8568615000003774
05,7t2,6,134,28.0,7.0,0.55,1.0,True,1.3577999000008276
05,7t2,6,135,49.0,20.0,0.55,1.0,True,1.0419621000000916
05,7t2,6,136,27.0,14.0,0.55,1.0,True,0.9403600999976334
05,7t2,6,137,40.0,10.0,0.55,1.0,True,1.006680999998963
05,7t2,6,138,24.0,10.0,0.55,1.0,True,1.690463800001453
05,7t2,6,139,49.0,14.0,0.55,1.0,True,0.8756837000000814
05,7t2,6,140,15.0,5.0,0.55,1.0,True,1.3582733999974153
05,7t2,6,141,19.0,7.0,0.55,1.0,True,0.6741306999974768
05,7t2,6,142,54.0,28.0,0.55,1.0,True,1.2407179000001065
05,7t2,6,143,15.0,7.0,0.55,1.0,True,1.7267293999976232
05,7t2,6,144,20.0,5.0,0.55,1.0,True,1.2751424000016414
05,7t2,7,145,35.0,10.0,0.55,1.0,False,1.0098023999998986
05,7t2,7,146,88.0,28.0,0.55,1.0,True,1.3085524999987683
05,7t2,7,147,99.0,28.0,0.55,1.0,True,0.7418961000003037
05,7t2,7,148,17.0,10.0,0.55,1.0,True,1.2750758000002094
05,7t2,7,149,34.0,14.0,0.55,1.0,True,0.4256233000014617
05,7t2,7,150,24.0,7.0,0.55,1.0,True,1.15821289999802
05,7t2,7,151,27.0,10.0,0.55,1.0,True,1.6565398999992027
05,7t2,7,152,11.0,5.0,0.55,1.0,True,3.3410987999995996
05,7t2,7,153,34.0,20.0,0.55,1.0,True,1.5090828000029433
05,7t2,7,154,12.0,5.0,0.55,1.0,False,1.1388288999987424
05,7t2,7,155,80.0,20.0,0.55,1.0,False,0.6576147999986119
05,7t2,7,156,17.0,5.0,0.55,1.0,False,0.9406708999995032
05,7t2,7,157,10.0,31.0,1.0,0.55,False,1.4738785000008932
05,7t2,7,158,20.0,63.0,1.0,0.55,True,0.8891665000010107
05,7t2,7,159,10.0,40.0,1.0,0.55,False,0.757765900001715
05,7t2,7,160,7.0,15.0,1.0,0.55,False,0.8088238999989414
05,7t2,7,161,14.0,30.0,1.0,0.55,False,2.2442580000024464
05,7t2,7,162,7.0,28.0,1.0,0.55,True,1.0078486000020348
05,7t2,7,163,10.0,35.0,1.0,0.55,False,1.2571848000006869
05,7t2,7,164,10.0,17.0,1.0,0.55,False,0.391299799997796
05,7t2,7,165,20.0,63.0,1.0,0.55,False,0.472705499996664
05,7t2,7,166,5.0,20.0,1.0,0.55,False,0.0586538999996264
05,7t2,7,167,5.0,12.0,1.0,0.55,True,1.0923493999980565
05,7t2,7,168,20.0,39.0,1.0,0.55,False,0.7759570000017106
05,7t2,8,169,14.0,39.0,1.0,0.55,False,0.843395200001396
05,7t2,8,170,7.0,22.0,1.0,0.55,True,1.27456009999878
05,7t2,8,171,5.0,15.0,1.0,0.55,False,0.756975300002523
05,7t2,8,172,10.0,24.0,1.0,0.55,True,1.6084836999980323
05,7t2,8,173,7.0,24.0,1.0,0.55,False,0.7419778999974369
05,7t2,8,174,28.0,48.0,1.0,0.55,True,2.057651800001622
05,7t2,8,175,7.0,17.0,1.0,0.55,False,1.1908313000021735
05,7t2,8,176,28.0,112.0,1.0,0.55,True,1.0576671000017086
05,7t2,8,177,14.0,34.0,1.0,0.55,False,1.0734107999996922
05,7t2,8,178,28.0,78.0,1.0,0.55,False,0.6184098999983689
05,7t2,8,179,14.0,27.0,1.0,0.55,False,1.1080154000010225
05,7t2,8,180,14.0,27.0,1.0,0.55,False,1.407378699997878
05,7t2,8,181,63.0,20.0,0.55,1.0,True,2.7075173000012
05,7t2,8,182,8.0,5.0,0.55,1.0,True,0.8588640999987831
05,7t2,8,183,61.0,28.0,0.55,1.0,True,1.5748786000003463
05,7t2,8,184,20.0,5.0,0.55,1.0,True,1.1249571000007563
05,7t2,8,185,19.0,10.0,0.55,1.0,True,0.4416893999987223
05,7t2,8,186,30.0,14.0,0.55,1.0,True,1.3082776999981434
05,7t2,8,187,17.0,7.0,0.55,1.0,True,0.6747059999979683
05,7t2,8,188,40.0,10.0,0.55,1.0,True,1.140736500001367
05,7t2,8,189,24.0,7.0,0.55,1.0,True,0.8434925000001385
05,7t2,8,190,31.0,10.0,0.55,1.0,False,0.2590971999999283
05,7t2,8,191,31.0,10.0,0.55,1.0,True,0.3918875000017578
05,7t2,8,192,22.0,10.0,0.55,1.0,True,0.6586427999973239
06,3t2,1,1,38.0,14.0,0.55,1.0,True,1.4956914334034224
06,3t2,1,2,80.0,28.0,0.55,1.0,True,1.2915022922279604
06,3t2,1,3,51.0,20.0,0.55,1.0,False,0.9415879211301216
06,3t2,1,4,16.0,5.0,0.55,1.0,True,1.090873010969517
06,3t2,1,5,30.0,10.0,0.55,1.0,True,1.7592741538137489
06,3t2,1,6,64.0,20.0,0.55,1.0,False,2.510268988960874
06,3t2,1,7,18.0,7.0,0.55,1.0,True,1.2412453753931487
06,3t2,1,8,67.0,20.0,0.55,1.0,False,1.2748213063604936
06,3t2,1,9,89.0,28.0,0.55,1.0,True,1.608660708556272
06,3t2,1,10,18.0,5.0,0.55,1.0,False,1.5087510837329603
06,3t2,1,11,12.0,5.0,0.55,1.0,True,0.857317210247885
06,3t2,1,12,18.0,7.0,0.55,1.0,True,1.3250471840401588
06,3t2,1,13,20.0,54.0,1.0,0.55,False,1.325450090389495
06,3t2,1,14,5.0,13.0,1.0,0.55,True,1.057760557909205
06,3t2,1,15,10.0,27.0,1.0,0.55,True,1.041104584182932
06,3t2,1,16,10.0,35.0,1.0,0.55,True,1.2248286743961216
06,3t2,1,17,5.0,15.0,1.0,0.55,False,1.107698946689197
06,3t2,1,18,28.0,100.0,1.0,0.55,True,1.5758465930302918
06,3t2,1,19,10.0,32.0,1.0,0.55,True,1.0745295382766926
06,3t2,1,20,5.0,18.0,1.0,0.55,False,0.8904881254129577
06,3t2,1,21,20.0,71.0,1.0,0.55,True,1.241951139545563
06,3t2,1,22,20.0,67.0,1.0,0.55,False,1.7762076718536264
06,3t2,1,23,28.0,100.0,1.0,0.55,False,1.5089346065215068
06,3t2,1,24,7.0,19.0,1.0,0.55,False,1.2749029724981824
06,3t2,2,25,13.0,5.0,0.55,1.0,True,0.6947753864915285
06,3t2,2,26,67.0,20.0,0.55,1.0,True,1.3915978506447573
06,3t2,2,27,76.0,28.0,0.55,1.0,True,1.2245622800728595
06,3t2,2,28,54.0,20.0,0.55,1.0,False,1.2426282753440103
06,3t2,2,29,72.0,28.0,0.55,1.0,True,1.2414168441355429
06,3t2,2,30,76.0,28.0,0.55,1.0,True,1.742354497917418
06,3t2,2,31,15.0,5.0,0.55,1.0,False,1.2077483983921695
06,3t2,2,32,17.0,5.0,0.55,1.0,True,1.0909827027535215
06,3t2,2,33,94.0,28.0,0.55,1.0,True,1.8426353872309849
06,3t2,2,34,26.0,7.0,0.55,1.0,False,1.1078655938181043
06,3t2,2,35,72.0,28.0,0.55,1.0,True,0.9908796105555666
06,3t2,2,36,54.0,20.0,0.55,1.0,True,1.358597801525292
06,3t2,2,37,5.0,16.0,1.0,0.55,False,0.9407604111511604
06,3t2,2,38,20.0,51.0,1.0,0.55,True,0.8910920329108478
06,3t2,2,39,20.0,75.0,1.0,0.55,True,1.6591581035280851
06,3t2,2,40,14.0,50.0,1.0,0.55,True,0.9078001403686358
06,3t2,2,41,14.0,44.0,1.0,0.55,True,0.7070244025053114
06,3t2,2,42,20.0,64.0,1.0,0.55,True,1.2417477275885176
06,3t2,2,43,14.0,52.0,1.0,0.55,True,1.0748923649407516
06,3t2,2,44,28.0,105.0,1.0,0.55,True,1.5759740645262923
06,3t2,2,45,20.0,64.0,1.0,0.55,False,1.1753169987022716
06,3t2,2,46,5.0,18.0,1.0,0.55,False,1.1583931238928926
06,3t2,2,47,5.0,13.0,1.0,0.55,False,1.725808215975178
06,3t2,2,48,10.0,33.0,1.0,0.55,False,1.64247681631241
06,3t2,3,49,60.0,20.0,0.55,1.0,True,0.895662021543103
06,3t2,3,50,27.0,10.0,0.55,1.0,True,1.2914953611507372
06,3t2,3,51,100.0,28.0,0.55,1.0,False,1.7598548572823347
06,3t2,3,52,36.0,14.0,0.55,1.0,True,1.2580496138361923
06,3t2,3,53,52.0,14.0,0.55,1.0,True,1.4755195970101482
06,3t2,3,54,21.0,7.0,0.55,1.0,True,1.2749656535161191
06,3t2,3,55,25.0,7.0,0.55,1.0,True,1.8259052811445289
06,3t2,3,56,33.0,10.0,0.55,1.0,False,
06,3t2,3,57,37.0,10.0,0.55,1.0,False,0.8908768682631489
06,3t2,3,58,89.0,28.0,0.55,1.0,False,1.144358602923603
06,3t2,3,59,30.0,10.0,0.55,1.0,True,1.2247096407300262
06,3t2,3,60,71.0,20.0,0.55,1.0,True,1.0074843546062482
06,3t2,3,61,20.0,51.0,1.0,0.55,False,0.6074125125160492
06,3t2,3,62,20.0,57.0,1.0,0.55,True,0.8910793761678804
06,3t2,3,63,20.0,67.0,1.0,0.55,True,0.9243801736338356
06,3t2,3,64,5.0,14.0,1.0,0.55,False,0.8905649699299261
06,3t2,3,65,5.0,16.0,1.0,0.55,False,3.328644411489222
06,3t2,3,66,5.0,17.0,1.0,0.55,False,1.8425567346057503
06,3t2,3,67,5.0,12.0,1.0,0.55,True,1.141510534176632
06,3t2,3,68,14.0,52.0,1.0,0.55,True,0.9244045830673712
06,3t2,3,69,14.0,36.0,1.0,0.55,False,0.7072223901413963
06,3t2,3,70,14.0,40.0,1.0,0.55,False,0.9576366724942318
06,3t2,3,71,7.0,20.0,1.0,0.55,True,0.90780405793339
06,3t2,3,72,7.0,23.0,1.0,0.55,False,1.1413267100361395
06,3t2,4,73,42.0,14.0,0.55,1.0,True,0.8449850213473802
06,3t2,4,74,14.0,5.0,0.55,1.0,True,1.224718982612103
06,3t2,4,75,16.0,5.0,0.55,1.0,True,1.1412396195846668
06,3t2,4,76,57.0,20.0,0.55,1.0,True,1.174478037384702
06,3t2,4,77,85.0,28.0,0.55,1.0,True,0.6236212812909798
06,3t2,4,78,38.0,14.0,0.55,1.0,True,0.5900890462216921
06,3t2,4,79,25.0,10.0,0.55,1.0,True,0.9575290901702828
06,3t2,4,80,105.0,28.0,0.55,1.0,True,1.3917428004970134
06,3t2,4,81,14.0,5.0,0.55,1.0,False,1.709945096852607
06,3t2,4,82,25.0,10.0,0.55,1.0,True,1.2582358487815952
06,3t2,4,83,37.0,10.0,0.55,1.0,True,0.5230842435921375
06,3t2,4,84,42.0,14.0,0.55,1.0,True,1.1411932115260868
06,3t2,4,85,28.0,72.0,1.0,0.55,True,0.8239070223535521
06,3t2,4,86,14.0,44.0,1.0,0.55,True,1.0411491841368845
06,3t2,4,87,28.0,76.0,1.0,0.55,False,1.5757203269422178
06,3t2,4,88,14.0,42.0,1.0,0.55,True,2.0264721827369954
06,3t2,4,89,7.0,18.0,1.0,0.55,False,1.9761772956699133
06,3t2,4,90,7.0,21.0,1.0,0.55,False,1.5755500636005308
06,3t2,4,91,28.0,105.0,1.0,0.55,False,1.3089508192097128
06,3t2,4,92,28.0,72.0,1.0,0.55,False,0.8744927131810982
06,3t2,4,93,14.0,38.0,1.0,0.55,True,1.107877949209069
06,3t2,4,94,10.0,30.0,1.0,0.55,True,1.5587497427223411
06,3t2,4,95,20.0,54.0,1.0,0.55,False,1.141823035213747
06,3t2,4,96,14.0,42.0,1.0,0.55,False,0.957541445561219
06,3t2,5,97,23.0,7.0,0.55,1.0,False,1.0785381099085498
06,3t2,5,98,28.0,10.0,0.55,1.0,True,1.1588032626677889
06,3t2,5,99,60.0,20.0,0.55,1.0,True,1.5753716637809705
06,3t2,5,100,36.0,14.0,0.55,1.0,True,0.6732830298060293
06,3t2,5,101,75.0,20.0,0.55,1.0,True,0.8404322097267141
06,3t2,5,102,19.0,7.0,0.55,1.0,False,0.9238986146592651
06,3t2,5,103,32.0,10.0,0.55,1.0,True,1.5250291632473818
06,3t2,5,104,12.0,5.0,0.55,1.0,True,0.7068972323613849
06,3t2,5,105,35.0,10.0,0.55,1.0,False,1.7925508431944763
06,3t2,5,106,105.0,28.0,0.55,1.0,False,0.556654750238522
06,3t2,5,107,26.0,7.0,0.55,1.0,False,1.6922925552134416
06,3t2,5,108,19.0,7.0,0.55,1.0,False,1.5751338978043066
06,3t2,5,109,28.0,76.0,1.0,0.55,False,1.1247397457009072
06,3t2,5,110,28.0,89.0,1.0,0.55,True,1.5927954799736028
06,3t2,5,111,5.0,16.0,1.0,0.55,False,1.2413161928889735
06,3t2,5,112,5.0,12.0,1.0,0.55,False,0.8240570951747372
06,3t2,5,113,5.0,16.0,1.0,0.55,False,0.7904245102072878
06,3t2,5,114,10.0,37.0,1.0,0.55,True,1.0577674889827904
06,3t2,5,115,10.0,25.0,1.0,0.55,True,1.291765371690417
06,3t2,5,116,14.0,36.0,1.0,0.55,False,0.9241616941217216
06,3t2,5,117,10.0,28.0,1.0,0.55,False,0.8569272619934054
06,3t2,5,118,14.0,38.0,1.0,0.55,True,1.1074988495929006
06,3t2,5,119,28.0,94.0,1.0,0.55,False,0.4896638097561663
06,3t2,5,120,7.0,18.0,1.0,0.55,False,0.940688086899172
06,3t2,6,121,14.0,47.0,1.0,0.55,False,1.2954349233950744
06,3t2,6,122,7.0,26.0,1.0,0.55,True,0.9915015991209656
06,3t2,6,123,7.0,21.0,1.0,0.55,True,1.341284279813408
06,3t2,6,124,7.0,26.0,1.0,0.55,True,0.940561519459166
06,3t2,6,125,14.0,47.0,1.0,0.55,True,0.6236318285773592
06,3t2,6,126,10.0,28.0,1.0,0.55,False,1.0909061595848328
06,3t2,6,127,28.0,89.0,1.0,0.55,True,1.0582330763499923
06,3t2,6,128,7.0,23.0,1.0,0.55,True,0.6235576962208569
06,3t2,6,129,10.0,33.0,1.0,0.55,True,0.9072718719835392
06,3t2,6,130,10.0,25.0,1.0,0.55,True,1.2745811295790477
06,3t2,6,131,7.0,22.0,1.0,0.55,False,0.8403186003779126
06,3t2,6,132,7.0,20.0,1.0,0.55,True,0.6236450880205666
06,3t2,6,133,64.0,20.0,0.55,1.0,True,0.7234546642976056
06,3t2,6,134,100.0,28.0,0.55,1.0,True,0.9907265242254653
06,3t2,6,135,52.0,14.0,0.55,1.0,True,1.157749739406427
06,3t2,6,136,20.0,7.0,0.55,1.0,True,1.5588021778058303
06,3t2,6,137,85.0,28.0,0.55,1.0,True,0.7901635402012914
06,3t2,6,138,35.0,10.0,0.55,1.0,False,1.2748770563084122
06,3t2,6,139,23.0,7.0,0.55,1.0,False,1.541893069195794
06,3t2,6,140,80.0,28.0,0.55,1.0,True,0.8575007330364883
06,3t2,6,141,47.0,14.0,0.55,1.0,True,0.860659796064283
06,3t2,6,142,22.0,7.0,0.55,1.0,True,1.324654222273182
06,3t2,6,143,32.0,10.0,0.55,1.0,True,1.2581852218063432
06,3t2,6,144,20.0,7.0,0.55,1.0,True,0.6902798315678069
06,3t2,7,145,44.0,14.0,0.55,1.0,True,2.063815905850788
06,3t2,7,146,25.0,7.0,0.55,1.0,True,1.0408264371653786
06,3t2,7,147,44.0,14.0,0.55,1.0,True,1.4416380960756214
06,3t2,7,148,51.0,20.0,0.55,1.0,True,0.8738249192611249
06,3t2,7,149,28.0,10.0,0.55,1.0,True,0.7735024435023803
06,3t2,7,150,40.0,14.0,0.55,1.0,True,0.8073212634226365
06,3t2,7,151,47.0,14.0,0.55,1.0,True,0.6733023162778409
06,3t2,7,152,22.0,7.0,0.55,1.0,False,3.0460967656290308
06,3t2,7,153,71.0,20.0,0.55,1.0,True,0.61028408664788
06,3t2,7,154,13.0,5.0,0.55,1.0,False,2.5941214245831645
06,3t2,7,155,15.0,5.0,0.55,1.0,True,1.491961611493025
06,3t2,7,156,50.0,14.0,0.55,1.0,True,0.9240287983120936
06,3t2,7,157,20.0,75.0,1.0,0.55,False,0.8576318207414602
06,3t2,7,158,7.0,22.0,1.0,0.55,True,1.69237211188738
06,3t2,7,159,20.0,57.0,1.0,0.55,False,0.8577080625582312
06,3t2,7,160,20.0,60.0,1.0,0.55,False,0.8486111784950197
06,3t2,7,161,10.0,35.0,1.0,0.55,True,1.2914103801558667
06,3t2,7,162,7.0,25.0,1.0,0.55,True,0.8739204475423321
06,3t2,7,163,10.0,32.0,1.0,0.55,True,0.6733068365392683
06,3t2,7,164,5.0,17.0,1.0,0.55,False,1.3247527640669432
06,3t2,7,165,10.0,30.0,1.0,0.55,True,0.3225441622416838
06,3t2,7,166,7.0,19.0,1.0,0.55,True,0.7736109298821248
06,3t2,7,167,10.0,27.0,1.0,0.55,True,0.8404822340016835
06,3t2,7,168,28.0,80.0,1.0,0.55,True,1.3420331371635823
06,3t2,8,169,28.0,85.0,1.0,0.55,False,0.912070284706715
06,3t2,8,170,5.0,15.0,1.0,0.55,False,1.308119090317632
06,3t2,8,171,7.0,25.0,1.0,0.55,True,0.79131349579621
06,3t2,8,172,14.0,40.0,1.0,0.55,False,0.7736718027954339
06,3t2,8,173,28.0,94.0,1.0,0.55,False,0.4560050072468584
06,3t2,8,174,28.0,80.0,1.0,0.55,True,0.874550271229964
06,3t2,8,175,5.0,14.0,1.0,0.55,True,0.8400437682284831
06,3t2,8,176,10.0,37.0,1.0,0.55,False,1.040980728903378
06,3t2,8,177,20.0,60.0,1.0,0.55,False,0.9910619279435195
06,3t2,8,178,28.0,85.0,1.0,0.55,True,1.091451906333532
06,3t2,8,179,14.0,50.0,1.0,0.55,True,0.8576294099329971
06,3t2,8,180,20.0,71.0,1.0,0.55,True,0.7072730171167052
06,3t2,8,181,75.0,20.0,0.55,1.0,False,1.174938200434525
06,3t2,8,182,50.0,14.0,0.55,1.0,False,1.107943342387415
06,3t2,8,183,18.0,5.0,0.55,1.0,True,0.5400310210753219
06,3t2,8,184,17.0,5.0,0.55,1.0,False,1.4417848540360865
06,3t2,8,185,16.0,5.0,0.55,1.0,False,0.9073499219048244
06,3t2,8,186,21.0,7.0,0.55,1.0,False,1.1077043710065482
06,3t2,8,187,33.0,10.0,0.55,1.0,True,2.27690966911905
06,3t2,8,188,16.0,5.0,0.55,1.0,False,1.2915697948629372
06,3t2,8,189,57.0,20.0,0.55,1.0,True,0.7071114929567557
06,3t2,8,190,27.0,10.0,0.55,1.0,True,1.8093128924920163
06,3t2,8,191,94.0,28.0,0.55,1.0,True,0.6104944296748727
06,3t2,8,192,40.0,14.0,0.55,1.0,True,1.2581828109978233
06,7t2,1,1,20.0,41.0,1.0,0.55,False,1.0946275999995123
06,7t2,1,2,10.0,19.0,1.0,0.55,True,0.9091931000002802
06,7t2,1,3,14.0,45.0,1.0,0.55,True,1.025364699999059
06,7t2,1,4,20.0,41.0,1.0,0.55,True,1.6412875999994867
06,7t2,1,5,10.0,17.0,1.0,0.55,False,1.2407610000009015
06,7t2,1,6,10.0,20.0,1.0,0.55,False,1.0751458999984609
06,7t2,1,7,10.0,24.0,1.0,0.55,True,0.8899407999997209
06,7t2,1,8,20.0,49.0,1.0,0.55,True,1.0239626000002318
06,7t2,1,9,28.0,90.0,1.0,0.55,True,1.048623899998347
06,7t2,1,10,5.0,14.0,1.0,0.55,False,2.041720200002544
06,7t2,1,11,5.0,13.0,1.0,0.55,False,1.0909383999969575
06,7t2,1,12,5.0,14.0,1.0,0.55,False,1.839727099999408
06,7t2,1,13,16.0,5.0,0.55,1.0,False,1.2070371000008606
06,7t2,1,14,9.0,5.0,0.55,1.0,True,0.7970358999992015
06,7t2,1,15,16.0,5.0,0.55,1.0,False,0.9754423000012764
06,7t2,1,16,69.0,28.0,0.55,1.0,False,1.2916947000012442
06,7t2,1,17,45.0,14.0,0.55,1.0,False,0.6748761999988915
06,7t2,1,18,38.0,14.0,0.55,1.0,False,1.5410305000004882
06,7t2,1,19,26.0,14.0,0.55,1.0,True,1.2407052999988082
06,7t2,1,20,29.0,14.0,0.55,1.0,True,1.2599105999979656
06,7t2,1,21,49.0,20.0,0.55,1.0,False,0.5913890000011293
06,7t2,1,22,41.0,14.0,0.55,1.0,False,0.9587840999993772
06,7t2,1,23,15.0,7.0,0.55,1.0,False,0.842235100000778
06,7t2,1,24,64.0,20.0,0.55,1.0,False,0.5587736999986532
06,7t2,2,25,7.0,22.0,1.0,0.55,True,0.9100435000000288
06,7t2,2,26,7.0,20.0,1.0,0.55,True,1.141924100000324
06,7t2,2,27,14.0,31.0,1.0,0.55,False,0.8739439999990424
06,7t2,2,28,28.0,48.0,1.0,0.55,False,0.6094204999972135
06,7t2,2,29,5.0,12.0,1.0,0.55,True,1.207729400000943
06,7t2,2,30,20.0,38.0,1.0,0.55,True,0.724734699997498
06,7t2,2,31,28.0,58.0,1.0,0.55,False,1.472461299999864
06,7t2,2,32,5.0,8.0,1.0,0.55,True,1.0910965999973996
06,7t2,2,33,20.0,59.0,1.0,0.55,True,0.8578324000009161
06,7t2,2,34,28.0,63.0,1.0,0.55,True,0.7225069000014344
06,7t2,2,35,10.0,22.0,1.0,0.55,True,1.625062799997977
06,7t2,2,36,7.0,17.0,1.0,0.55,True,1.375260600001667
06,7t2,2,37,8.0,5.0,0.55,1.0,False,1.2226198999996996
06,7t2,2,38,76.0,28.0,0.55,1.0,True,1.3423618000015267
06,7t2,2,39,13.0,5.0,0.55,1.0,False,1.0410941000009188
06,7t2,2,40,45.0,14.0,0.55,1.0,False,0.9924309000016364
06,7t2,2,41,22.0,10.0,0.55,1.0,False,1.5059397999975772
06,7t2,2,42,45.0,20.0,0.55,1.0,True,1.0084418000005826
06,7t2,2,43,59.0,20.0,0.55,1.0,True,1.0595334999998158
06,7t2,2,44,53.0,28.0,0.55,1.0,True,0.7237117000004218
06,7t2,2,45,58.0,28.0,0.55,1.0,True,0.859181499999977
06,7t2,2,46,38.0,14.0,0.55,1.0,False,0.7578995000002919
06,7t2,2,47,41.0,20.0,0.55,1.0,True,1.1569037999979628
06,7t2,2,48,10.0,5.0,0.55,1.0,True,1.8081672000008095
06,7t2,3,49,54.0,20.0,0.55,1.0,True,1.2444949999990025
06,7t2,3,50,69.0,28.0,0.55,1.0,False,0.7902520999996341
06,7t2,3,51,90.0,28.0,0.55,1.0,False,0.6412845999984711
06,7t2,3,52,14.0,7.0,0.55,1.0,False,1.0242699000009452
06,7t2,3,53,83.0,28.0,0.55,1.0,True,0.9258064999994532
06,7t2,3,54,19.0,10.0,0.55,1.0,True,0.9585067000007116
06,7t2,3,55,20.0,10.0,0.55,1.0,True,1.3091634000011396
06,7t2,3,56,48.0,28.0,0.55,1.0,True,1.7402922000001126
06,7t2,3,57,11.0,5.0,0.55,1.0,True,0.8068830000011076
06,7t2,3,58,29.0,14.0,0.55,1.0,True,1.2239004000002751
06,7t2,3,59,20.0,7.0,0.55,1.0,False,0.9921382000029552
06,7t2,3,60,12.0,7.0,0.55,1.0,False,0.7751740999992762
06,7t2,3,61,14.0,26.0,1.0,0.55,False,1.143388600001316
06,7t2,3,62,28.0,76.0,1.0,0.55,True,1.7685501999986002
06,7t2,3,63,7.0,12.0,1.0,0.55,True,0.97514659999797
06,7t2,3,64,5.0,13.0,1.0,0.55,True,0.7584069000004092
06,7t2,3,65,7.0,17.0,1.0,0.55,True,1.4572322000021811
06,7t2,3,66,7.0,14.0,1.0,0.55,True,0.8743523999983722
06,7t2,3,67,14.0,38.0,1.0,0.55,False,1.243000900001789
06,7t2,3,68,7.0,20.0,1.0,0.55,True,0.924109599996882
06,7t2,3,69,7.0,14.0,1.0,0.55,False,1.2576573000005735
06,7t2,3,70,10.0,19.0,1.0,0.55,True,1.2905613000002631
06,7t2,3,71,20.0,45.0,1.0,0.55,True,1.4754779000031135
06,7t2,3,72,14.0,34.0,1.0,0.55,False,0.8741479999989679
06,7t2,4,73,38.0,20.0,0.55,1.0,True,0.7618448000030149
06,7t2,4,74,15.0,7.0,0.55,1.0,False,0.8240201000007801
06,7t2,4,75,27.0,10.0,0.55,1.0,False,0.808482100001136
06,7t2,4,76,19.0,10.0,0.55,1.0,False,1.425101900000307
06,7t2,4,77,63.0,28.0,0.55,1.0,True,0.7402160000019364
06,7t2,4,78,64.0,20.0,0.55,1.0,True,1.4744130999970508
06,7t2,4,79,17.0,7.0,0.55,1.0,False,0.973350299998856
06,7t2,4,80,58.0,28.0,0.55,1.0,True,1.0747770000016317
06,7t2,4,81,17.0,7.0,0.55,1.0,False,0.6411798000008275
06,7t2,4,82,11.0,5.0,0.55,1.0,True,0.4737702999991597
06,7t2,4,83,41.0,14.0,0.55,1.0,True,2.2917594999998983
06,7t2,4,84,20.0,7.0,0.55,1.0,True,0.8914579000011145
