subject,run,trial_nr,n1,n2,p1,p2,risky_first,choice,rt
100,1.0,225.0,5.32,13.97,1.0,0.55,False,True,1.3936820999999782
100,1.0,227.0,7.46,12.89,1.0,0.55,False,False,1.3697379000000185
100,1.0,229.0,21.77,47.59,1.0,0.55,False,True,2.100487300000168
100,1.0,231.0,13.23,51.8,1.0,0.55,False,True,1.0278074999998807
100,1.0,233.0,7.68,29.86,1.0,0.55,False,True,1.2164880999998786
100,1.0,235.0,25.86,89.87,1.0,0.55,False,True,0.9573220999998284
100,1.0,237.0,20.24,71.18,1.0,0.55,False,True,0.9001236999999946
100,1.0,239.0,11.89,41.59,1.0,0.55,False,True,1.393289300000106
100,1.0,241.0,21.84,38.63,1.0,0.55,False,False,0.9099909999999908
100,1.0,243.0,6.16,21.46,1.0,0.55,False,True,0.8038269999999557
100,1.0,245.0,10.78,41.15,1.0,0.55,False,True,0.8627462000001742
100,1.0,247.0,8.78,11.47,1.0,0.55,False,False,1.086700800000017
100,1.0,249.0,5.29,5.71,1.0,0.55,False,False,0.9334349999999176
100,1.0,251.0,6.25,21.48,1.0,0.55,False,True,0.9806300999998712
100,1.0,253.0,9.35,30.91,1.0,0.55,False,True,1.3460955000000467
100,1.0,255.0,27.53,77.35,1.0,0.55,False,True,0.7684207000002061
100,1.0,226.0,25.7,8.8,0.55,1.0,True,False,2.0770081999999093
100,1.0,228.0,13.68,7.88,0.55,1.0,True,True,1.9709407999998805
100,1.0,230.0,9.96,5.45,0.55,1.0,True,True,2.5488466999997854
100,1.0,232.0,29.7,17.6,0.55,1.0,True,True,1.3461698999999498
100,1.0,234.0,28.41,8.41,0.55,1.0,True,False,1.7705044000003909
100,1.0,236.0,32.11,9.38,0.55,1.0,True,False,1.0749671000003218
100,1.0,238.0,20.03,10.46,0.55,1.0,True,True,1.8176910999995928
100,1.0,240.0,29.06,7.46,0.55,1.0,True,False,1.487590100000034
100,1.0,242.0,8.75,8.02,0.55,1.0,True,True,1.42894699999988
100,1.0,244.0,25.4,8.15,0.55,1.0,True,False,1.3343721000001096
100,1.0,246.0,40.04,16.45,0.55,1.0,True,False,2.1242129000002024
100,1.0,248.0,23.22,9.37,0.55,1.0,True,False,2.348273600000084
100,1.0,250.0,12.37,7.63,0.55,1.0,True,True,1.3579036999999516
100,1.0,252.0,27.6,20.73,0.55,1.0,True,True,1.4404335999997784
100,1.0,254.0,11.89,5.44,0.55,1.0,True,True,1.723413399999572
100,1.0,256.0,47.56,27.59,0.55,1.0,True,True,2.1595861000000696
100,2.0,225.0,5.85,15.15,1.0,0.55,False,True,1.1695574000000306
100,2.0,227.0,26.79,72.5,1.0,0.55,False,True,0.8274037000001044
100,2.0,229.0,9.95,33.99,1.0,0.55,False,True,0.8392493000001195
100,2.0,231.0,25.68,101.54,1.0,0.55,False,True,0.8746055999999953
100,2.0,233.0,15.6,58.97,1.0,0.55,False,True,0.7921080999999504
100,2.0,235.0,16.53,43.48,1.0,0.55,False,True,0.780283000000054
100,2.0,237.0,6.82,12.08,1.0,0.55,False,False,0.9570543999998335
100,2.0,239.0,19.91,35.49,1.0,0.55,False,False,0.9923961999998028
100,2.0,241.0,6.62,24.13,1.0,0.55,False,True,0.8274243000000752
100,2.0,243.0,6.46,22.67,1.0,0.55,False,True,0.8274274000000332
100,2.0,245.0,5.31,19.05,1.0,0.55,False,True,0.768548500000179
100,2.0,247.0,8.09,14.22,1.0,0.55,False,False,1.3343928999997845
100,2.0,249.0,11.85,22.57,1.0,0.55,False,False,0.980714799999987
100,2.0,251.0,7.08,26.63,1.0,0.55,False,True,0.8864166999996996
100,2.0,253.0,8.65,34.59,1.0,0.55,False,True,0.8274415999999292
100,2.0,255.0,6.77,21.96,1.0,0.55,False,True,1.3107919999997648
100,2.0,226.0,19.63,11.4,0.55,1.0,True,True,1.239879799999926
100,2.0,228.0,31.97,25.91,0.55,1.0,True,True,0.8038904000000002
100,2.0,230.0,35.81,13.12,0.55,1.0,True,False,1.0990034000001287
100,2.0,232.0,29.45,17.43,0.55,1.0,True,True,0.8510679999999411
100,2.0,234.0,59.04,18.69,0.55,1.0,True,False,1.487649799999872
100,2.0,236.0,57.78,18.22,0.55,1.0,True,False,1.7354591999996956
100,2.0,238.0,28.04,12.83,0.55,1.0,True,False,1.2990187999998852
100,2.0,240.0,55.43,19.29,0.55,1.0,True,False,0.9217514000001756
100,2.0,242.0,5.76,5.54,0.55,1.0,True,True,1.0160713999998734
100,2.0,244.0,23.77,13.0,0.55,1.0,True,True,0.9335464000000684
100,2.0,246.0,35.53,13.55,0.55,1.0,True,False,0.9099154000000452
100,2.0,248.0,31.2,12.81,0.55,1.0,True,False,0.8746532999998635
100,2.0,250.0,63.93,21.28,0.55,1.0,True,False,1.0986037000002398
100,2.0,252.0,82.75,26.51,0.55,1.0,True,False,1.0632550999998784
100,2.0,254.0,84.12,21.08,0.55,1.0,True,False,0.9335740999999872
100,2.0,256.0,29.46,13.52,0.55,1.0,True,False,1.098626200000126
100,3.0,225.0,32.11,14.21,0.55,1.0,True,False,1.5466020000003482
100,3.0,227.0,41.28,12.11,0.55,1.0,True,False,0.8037673000003451
100,3.0,229.0,46.49,13.2,0.55,1.0,True,False,1.0042538000002423
100,3.0,231.0,48.44,26.3,0.55,1.0,True,False,0.9807718000001842
100,3.0,233.0,28.74,11.31,0.55,1.0,True,False,1.0396442999999636
100,3.0,235.0,24.55,6.94,0.55,1.0,True,False,1.534838099999888
100,3.0,237.0,19.28,14.1,0.55,1.0,True,True,1.3933587000001353
100,3.0,239.0,12.6,5.05,0.55,1.0,True,False,0.8864840000001095
100,3.0,241.0,17.65,5.89,0.55,1.0,True,False,1.8414268000001357
100,3.0,243.0,22.97,16.07,0.55,1.0,True,True,0.9571670000000267
100,3.0,245.0,19.38,16.91,0.55,1.0,True,True,0.8628728999997293
100,3.0,247.0,51.01,21.91,0.55,1.0,True,False,0.8864346000000296
100,3.0,249.0,57.75,23.38,0.55,1.0,True,False,1.8060270999999375
100,3.0,251.0,15.49,11.96,0.55,1.0,True,True,1.0396853999995983
100,3.0,253.0,16.68,5.07,0.55,1.0,True,False,0.8157270000001517
100,3.0,255.0,56.45,26.6,0.55,1.0,True,False,1.145826099999795
100,3.0,226.0,6.8,10.95,1.0,0.55,False,False,1.110501000000113
100,3.0,228.0,12.9,48.42,1.0,0.55,False,True,0.8867806999996901
100,3.0,230.0,14.59,41.68,1.0,0.55,False,True,0.6979027000002134
100,3.0,232.0,6.14,23.78,1.0,0.55,False,True,1.0043620999999805
100,3.0,234.0,15.55,35.11,1.0,0.55,False,True,0.8746893000002274
100,3.0,236.0,12.45,30.72,1.0,0.55,False,True,0.7921648999999888
100,3.0,238.0,6.21,18.18,1.0,0.55,False,True,0.8157462999997733
100,3.0,240.0,22.24,74.43,1.0,0.55,False,True,0.7685980999999629
100,3.0,242.0,6.15,14.86,1.0,0.55,False,True,1.275495200000023
100,3.0,244.0,11.5,34.39,1.0,0.55,False,True,1.1105374999997366
100,3.0,246.0,8.38,29.21,1.0,0.55,False,True,0.9571586999995816
100,3.0,248.0,11.9,35.41,1.0,0.55,False,True,0.8275641000000178
100,3.0,250.0,8.49,22.48,1.0,0.55,False,True,1.1222523999999794
100,3.0,252.0,23.22,64.59,1.0,0.55,False,True,0.88651260000006
100,3.0,254.0,6.84,15.5,1.0,0.55,False,True,0.8747671999999511
100,3.0,256.0,26.06,55.98,1.0,0.55,False,True,0.7568285000002106
100,4.0,225.0,35.16,21.94,0.55,1.0,True,True,0.9571605000001
100,4.0,227.0,24.34,14.27,0.55,1.0,True,True,1.1576810000001387
100,4.0,229.0,12.09,7.1,0.55,1.0,True,True,0.9336104999997588
100,4.0,231.0,22.35,14.56,0.55,1.0,True,True,1.4642934000003152
100,4.0,233.0,27.19,8.64,0.55,1.0,True,False,1.4052768999999898
100,4.0,235.0,20.26,14.44,0.55,1.0,True,True,0.8747041999999965
100,4.0,237.0,25.58,16.63,0.55,1.0,True,True,1.4170272999999725
100,4.0,239.0,52.1,16.0,0.55,1.0,True,False,1.1578291999999235
100,4.0,241.0,42.14,14.24,0.55,1.0,True,False,1.2519337999997333
100,4.0,243.0,36.28,20.31,0.55,1.0,True,True,0.8040037000000666
100,4.0,245.0,37.78,17.91,0.55,1.0,True,False,0.9925530000000437
100,4.0,247.0,24.05,11.43,0.55,1.0,True,False,1.2402053000000706
100,4.0,249.0,59.6,27.72,0.55,1.0,True,True,1.3816588999998205
100,4.0,251.0,38.11,22.28,0.55,1.0,True,True,0.7097395000000688
100,4.0,253.0,60.89,15.55,0.55,1.0,True,False,1.0633545000000597
100,4.0,255.0,24.4,6.62,0.55,1.0,True,False,0.8276543000001766
100,4.0,226.0,11.55,14.33,1.0,0.55,False,False,0.886551099999906
100,4.0,228.0,17.84,68.42,1.0,0.55,False,True,0.7450730000000476
100,4.0,230.0,19.45,76.86,1.0,0.55,False,True,0.7922822000000451
100,4.0,232.0,8.07,15.58,1.0,0.55,False,False,1.016469700000016
100,4.0,234.0,9.24,28.6,1.0,0.55,False,True,0.780432799999744
100,4.0,236.0,8.51,29.96,1.0,0.55,False,True,0.721488700000009
100,4.0,238.0,13.9,37.6,1.0,0.55,False,True,0.7451046999999562
100,4.0,240.0,5.98,14.2,1.0,0.55,False,True,0.8040685000000849
100,4.0,242.0,13.44,31.74,1.0,0.55,False,True,0.7215354999998453
100,4.0,244.0,16.05,51.43,1.0,0.55,False,True,0.7097108000002663
100,4.0,246.0,16.87,54.95,1.0,0.55,False,True,0.804047300000093
100,4.0,248.0,5.63,14.45,1.0,0.55,False,True,0.8394157999996423
100,4.0,250.0,9.06,20.18,1.0,0.55,False,True,0.6979790000000321
100,4.0,252.0,16.19,55.45,1.0,0.55,False,True,0.7687000999999327
100,4.0,254.0,19.17,23.93,1.0,0.55,False,False,1.1695193000000472
100,4.0,256.0,8.23,17.55,1.0,0.55,False,True,1.0515829999999369
100,5.0,225.0,12.93,29.41,1.0,0.55,False,True,0.8276264000000992
100,5.0,227.0,15.51,47.51,1.0,0.55,False,True,0.7569185000002108
100,5.0,229.0,9.06,17.53,1.0,0.55,False,False,0.815831899999921
100,5.0,231.0,6.52,20.9,1.0,0.55,False,True,0.7569335999996838
100,5.0,233.0,13.71,41.16,1.0,0.55,False,True,0.7451086999999461
100,5.0,235.0,8.0,16.71,1.0,0.55,False,True,1.0990443000000596
100,5.0,237.0,11.95,40.04,1.0,0.55,False,True,0.7805174999998599
100,5.0,239.0,6.58,19.7,1.0,0.55,False,True,1.2048902000001362
100,5.0,241.0,9.75,19.67,1.0,0.55,False,True,0.9691142000001493
100,5.0,243.0,12.54,25.03,1.0,0.55,False,True,0.9455085999998118
100,5.0,245.0,9.67,24.02,1.0,0.55,False,True,0.6744096000002173
100,5.0,247.0,7.94,20.07,1.0,0.55,False,True,0.721560099999806
100,5.0,249.0,24.29,35.65,1.0,0.55,False,False,0.9572382999999718
100,5.0,251.0,11.02,28.7,1.0,0.55,False,True,0.82769559999997
100,5.0,253.0,11.18,16.53,1.0,0.55,False,False,1.6057877000002918
100,5.0,255.0,17.81,70.55,1.0,0.55,False,True,1.039805499999602
100,5.0,226.0,15.11,12.38,0.55,1.0,True,True,0.697988500000065
100,5.0,228.0,9.44,7.06,0.55,1.0,True,True,0.7334803999997348
100,5.0,230.0,42.27,15.45,0.55,1.0,True,False,1.0988219000000754
100,5.0,232.0,30.34,15.23,0.55,1.0,True,True,0.9219039999998132
100,5.0,234.0,49.76,15.69,0.55,1.0,True,False,0.9336475999998584
100,5.0,236.0,60.69,21.79,0.55,1.0,True,False,0.8748759999998583
100,5.0,238.0,37.93,13.31,0.55,1.0,True,False,0.7216255999996974
100,5.0,240.0,35.12,10.74,0.55,1.0,True,False,0.7805530000000545
100,5.0,242.0,32.18,22.36,0.55,1.0,True,True,0.933681400000296
100,5.0,244.0,23.74,10.65,0.55,1.0,True,True,1.499668099999781
100,5.0,246.0,12.59,10.5,0.55,1.0,True,True,0.7687489999998434
100,5.0,248.0,82.97,25.16,0.55,1.0,True,False,1.157768500000202
100,5.0,250.0,20.95,20.57,0.55,1.0,True,True,0.7333590999996886
100,5.0,252.0,13.91,10.59,0.55,1.0,True,True,0.7687679999999091
100,5.0,254.0,23.26,8.26,0.55,1.0,True,False,0.7923811000000569
100,5.0,256.0,39.6,12.56,0.55,1.0,True,False,0.9691606999999748
100,6.0,225.0,21.75,9.4,0.55,1.0,True,True,1.110783099999935
100,6.0,227.0,6.74,5.15,0.55,1.0,True,True,0.7334108000000015
100,6.0,229.0,50.96,25.32,0.55,1.0,True,True,0.7336865000002035
100,6.0,231.0,82.68,26.97,0.55,1.0,True,False,0.7569996000001993
100,6.0,233.0,46.58,14.41,0.55,1.0,True,False,0.8277760000000853
100,6.0,235.0,50.97,16.74,0.55,1.0,True,False,0.9101072000003114
100,6.0,237.0,31.1,8.13,0.55,1.0,True,False,0.8514764999999898
100,6.0,239.0,36.42,11.18,0.55,1.0,True,False,1.3462749999998778
100,6.0,241.0,17.81,6.15,0.55,1.0,True,False,0.8512875000001259
100,6.0,243.0,100.38,27.12,0.55,1.0,True,False,0.7216062999996211
100,6.0,245.0,27.26,12.11,0.55,1.0,True,True,0.8866500999997697
100,6.0,247.0,51.24,21.41,0.55,1.0,True,False,0.7570004000003792
100,6.0,249.0,12.91,9.33,0.55,1.0,True,True,0.8749041000000943
100,6.0,251.0,20.2,7.41,0.55,1.0,True,False,0.7570400999998128
100,6.0,253.0,14.62,7.06,0.55,1.0,True,True,0.9219210999999632
100,6.0,255.0,45.19,14.7,0.55,1.0,True,True,0.7452408999997715
100,6.0,226.0,14.64,44.92,1.0,0.55,False,True,0.7216757999999572
100,6.0,228.0,12.77,44.99,1.0,0.55,False,True,0.6745206999999027
100,6.0,230.0,22.09,36.35,1.0,0.55,False,False,0.8042093999997633
100,6.0,232.0,10.88,30.8,1.0,0.55,False,True,0.7098547000000508
100,6.0,234.0,8.0,11.7,1.0,0.55,False,False,0.7924067000003561
100,6.0,236.0,13.54,31.99,1.0,0.55,False,True,0.7099278999999115
100,6.0,238.0,5.04,10.78,1.0,0.55,False,True,0.8631806999997025
100,6.0,240.0,13.05,35.2,1.0,0.55,False,True,0.7570365999999922
100,6.0,242.0,20.03,67.84,1.0,0.55,False,True,0.6980545999999777
100,6.0,244.0,19.96,30.72,1.0,0.55,False,False,0.7688414999997804
100,6.0,246.0,19.45,35.56,1.0,0.55,False,False,0.7688378000002558
100,6.0,248.0,5.88,16.43,1.0,0.55,False,True,0.7099061999997502
100,6.0,250.0,5.83,18.14,1.0,0.55,False,True,0.686294000000089
100,6.0,252.0,16.47,17.61,1.0,0.55,False,False,1.087076799999977
100,6.0,254.0,6.17,12.75,1.0,0.55,False,True,1.0517162999999528
100,6.0,256.0,23.27,51.46,1.0,0.55,False,True,1.098853500000132
100,7.0,225.0,77.33,19.46,0.55,1.0,True,False,1.0989441000001534
100,7.0,227.0,61.78,16.89,0.55,1.0,True,False,1.393649699999969
100,7.0,229.0,63.44,19.47,0.55,1.0,True,False,0.70993210000006
100,7.0,231.0,41.78,11.23,0.55,1.0,True,False,0.90086059999976
100,7.0,233.0,59.8,22.14,0.55,1.0,True,False,0.9927480999999716
100,7.0,235.0,18.32,17.48,0.55,1.0,True,True,0.7334624000000076
100,7.0,237.0,23.92,14.27,0.55,1.0,True,True,0.6745252000000619
100,7.0,239.0,19.87,13.18,0.55,1.0,True,True,0.9220433999998932
100,7.0,241.0,32.89,8.51,0.55,1.0,True,False,0.8513817000002746
100,7.0,243.0,56.04,19.15,0.55,1.0,True,False,0.792425799999819
100,7.0,245.0,94.15,26.46,0.55,1.0,True,False,1.2286119000000326
100,7.0,247.0,21.71,6.78,0.55,1.0,True,False,0.6745246999998926
100,7.0,249.0,19.29,8.16,0.55,1.0,True,False,1.3818780999999944
100,7.0,251.0,18.52,10.07,0.55,1.0,True,True,0.7806813000001966
100,7.0,253.0,37.9,15.11,0.55,1.0,True,False,0.980988199999956
100,7.0,255.0,16.06,5.14,0.55,1.0,True,False,0.900847999999769
100,7.0,226.0,12.04,47.14,1.0,0.55,False,True,0.9691992000002756
100,7.0,228.0,7.07,9.41,1.0,0.55,False,False,0.7688491999997495
100,7.0,230.0,7.04,22.81,1.0,0.55,False,True,0.7217241999996986
100,7.0,232.0,11.09,37.63,1.0,0.55,False,True,0.7100561999995989
100,7.0,234.0,7.38,17.3,1.0,0.55,False,True,0.8278033000005962
100,7.0,236.0,16.92,20.37,1.0,0.55,False,False,0.7570762000004834
100,7.0,238.0,6.22,23.23,1.0,0.55,False,True,0.7571377999993274
100,7.0,240.0,11.13,31.62,1.0,0.55,False,True,0.6509699999996883
100,7.0,242.0,19.34,59.33,1.0,0.55,False,True,0.7924626000003627
100,7.0,244.0,7.07,18.65,1.0,0.55,False,True,1.1814840999995797
100,7.0,246.0,6.39,24.08,1.0,0.55,False,True,0.7099140000000261
100,7.0,248.0,26.85,105.54,1.0,0.55,False,True,0.8042590000004566
100,7.0,250.0,11.67,46.3,1.0,0.55,False,True,0.756922399999894
100,7.0,252.0,25.41,66.96,1.0,0.55,False,True,0.8278390999994372
100,7.0,254.0,15.58,16.49,1.0,0.55,False,False,1.134343099999569
100,7.0,256.0,18.46,72.34,1.0,0.55,False,True,0.7099444999994375
100,8.0,225.0,25.34,33.69,1.0,0.55,False,False,0.7924151999995956
100,8.0,227.0,13.35,35.01,1.0,0.55,False,True,0.8514320000003863
100,8.0,229.0,14.14,36.28,1.0,0.55,False,True,0.933836600000177
100,8.0,231.0,13.75,40.69,1.0,0.55,False,True,0.6745819999996456
100,8.0,233.0,26.28,77.55,1.0,0.55,False,True,0.7217165000001842
100,8.0,235.0,5.09,18.65,1.0,0.55,False,True,0.6509887000001982
100,8.0,237.0,7.08,13.89,1.0,0.55,False,False,0.7808040999998411
100,8.0,239.0,22.43,52.05,1.0,0.55,False,True,0.6745863000005556
100,8.0,241.0,12.58,44.92,1.0,0.55,False,True,0.686418400000548
100,8.0,243.0,18.11,40.86,1.0,0.55,False,True,0.6627949999992779
100,8.0,245.0,12.85,49.61,1.0,0.55,False,True,0.7217835999999807
100,8.0,247.0,6.67,14.98,1.0,0.55,False,True,0.8514237999997931
100,8.0,249.0,16.27,27.84,1.0,0.55,False,False,0.7925090999997337
100,8.0,251.0,23.04,24.99,1.0,0.55,False,False,0.8279412000001685
100,8.0,253.0,8.14,8.34,1.0,0.55,False,False,0.8868507999995927
100,8.0,255.0,23.85,65.36,1.0,0.55,False,True,0.6981832000001305
100,8.0,226.0,71.17,24.26,0.55,1.0,True,False,0.733538899999985
100,8.0,228.0,47.74,12.19,0.55,1.0,True,False,0.7099532999991425
100,8.0,230.0,13.4,9.26,0.55,1.0,True,True,0.6510628000005454
100,8.0,232.0,31.16,19.71,0.55,1.0,True,True,0.7218112999998993
100,8.0,234.0,25.36,12.07,0.55,1.0,True,True,0.8161094999995839
100,8.0,236.0,8.15,5.81,0.55,1.0,True,True,0.7218320000001768
100,8.0,238.0,25.37,7.91,0.55,1.0,True,False,0.9009462999993048
100,8.0,240.0,52.01,19.2,0.55,1.0,True,False,0.7098461000005045
100,8.0,242.0,25.13,13.08,0.55,1.0,True,True,0.9694074000008186
100,8.0,244.0,54.49,20.98,0.55,1.0,True,False,1.0283294000000751
100,8.0,246.0,21.11,5.67,0.55,1.0,True,False,0.7571757999994588
100,8.0,248.0,40.3,19.27,0.55,1.0,True,True,1.29983859999993
100,8.0,250.0,101.56,26.18,0.55,1.0,True,False,0.7689929999996821
100,8.0,252.0,25.98,12.72,0.55,1.0,True,True,0.8044214999999895
100,8.0,254.0,20.21,7.58,0.55,1.0,True,False,0.9339103000002068
100,8.0,256.0,13.05,7.85,0.55,1.0,True,True,0.8043768999996246
101,1.0,225.0,13.55,18.23,1.0,0.55,False,True,0.8627937999999631
101,1.0,227.0,5.37,12.35,1.0,0.55,False,True,0.7803464000000986
101,1.0,229.0,12.99,47.81,1.0,0.55,False,True,1.0396458999998686
101,1.0,231.0,8.94,19.61,1.0,0.55,False,True,1.1575110999999652
101,1.0,233.0,21.15,76.39,1.0,0.55,False,True,0.8393344999999499
101,1.0,235.0,7.79,17.06,1.0,0.55,False,False,0.8864134999998896
101,1.0,237.0,9.96,14.92,1.0,0.55,False,False,1.1574728999999024
101,1.0,239.0,5.72,14.49,1.0,0.55,False,True,1.1928219000001263
101,1.0,241.0,9.86,36.85,1.0,0.55,False,True,0.9334217000000536
101,1.0,243.0,17.47,23.08,1.0,0.55,False,True,1.0985244999999395
101,1.0,245.0,8.47,10.6,1.0,0.55,False,False,0.9806134999998904
101,1.0,247.0,7.36,20.27,1.0,0.55,False,True,0.803872599999977
101,1.0,249.0,7.22,20.57,1.0,0.55,False,True,0.7684967000000142
101,1.0,251.0,15.0,58.64,1.0,0.55,False,True,1.074967000000015
101,1.0,253.0,16.67,65.0,1.0,0.55,False,True,1.051381099999844
101,1.0,255.0,5.25,9.48,1.0,0.55,False,False,1.0042817000000923
101,1.0,226.0,34.03,10.77,0.55,1.0,True,False,0.9688222999998288
101,1.0,228.0,34.04,11.45,0.55,1.0,True,False,1.1574829999999563
101,1.0,230.0,6.01,5.35,0.55,1.0,True,True,0.968837800000074
101,1.0,232.0,49.37,13.18,0.55,1.0,True,True,1.1928499000000556
101,1.0,234.0,51.68,16.13,0.55,1.0,True,False,1.157491299999947
101,1.0,236.0,13.04,7.64,0.55,1.0,True,True,1.1810566000001472
101,1.0,238.0,10.02,9.26,0.55,1.0,True,True,0.9453012999999828
101,1.0,240.0,15.8,9.43,0.55,1.0,True,True,0.8510936000000129
101,1.0,242.0,25.53,23.5,0.55,1.0,True,True,0.9570624999998928
101,1.0,244.0,11.91,5.09,0.55,1.0,True,True,1.8295834999998988
101,1.0,246.0,7.13,7.05,0.55,1.0,True,True,0.8392880999999761
101,1.0,248.0,11.24,5.35,0.55,1.0,True,True,1.4523807999999008
101,1.0,250.0,13.59,6.68,0.55,1.0,True,False,1.0396158000003195
101,1.0,252.0,16.01,6.57,0.55,1.0,True,False,0.9689194999996288
101,1.0,254.0,49.15,13.19,0.55,1.0,True,False,0.9689808999996784
101,1.0,256.0,42.87,11.69,0.55,1.0,True,False,0.8510520999998334
101,2.0,225.0,27.25,24.68,0.55,1.0,True,True,1.004324999999881
101,2.0,227.0,57.34,17.53,0.55,1.0,True,True,1.4404801000000589
101,2.0,229.0,43.61,12.47,0.55,1.0,True,False,1.0160783999999694
101,2.0,231.0,100.18,25.24,0.55,1.0,True,False,1.0632510000000366
101,2.0,233.0,38.89,12.88,0.55,1.0,True,False,1.1339578000001893
101,2.0,235.0,89.78,26.01,0.55,1.0,True,True,1.3346099000000322
101,2.0,237.0,48.01,16.64,0.55,1.0,True,False,1.1339418000002297
101,2.0,239.0,59.22,21.48,0.55,1.0,True,True,0.8510965000000397
101,2.0,241.0,11.83,7.47,0.55,1.0,True,False,1.0160476000000926
101,2.0,243.0,70.3,18.18,0.55,1.0,True,False,1.2403251999999156
101,2.0,245.0,50.13,17.91,0.55,1.0,True,False,1.3344527999997808
101,2.0,247.0,24.35,9.7,0.55,1.0,True,False,1.0397330000000693
101,2.0,249.0,20.49,5.73,0.55,1.0,True,False,0.9334880000001248
101,2.0,251.0,7.7,5.39,0.55,1.0,True,True,1.1457532000003994
101,2.0,253.0,12.59,6.57,0.55,1.0,True,True,1.5822818000001462
101,2.0,255.0,23.29,12.0,0.55,1.0,True,True,1.1811320000001615
101,2.0,226.0,14.97,21.12,1.0,0.55,False,False,1.570297699999628
101,2.0,228.0,16.12,50.79,1.0,0.55,False,False,1.2050662999999986
101,2.0,230.0,6.03,22.91,1.0,0.55,False,True,1.6766147999996974
101,2.0,232.0,20.36,67.72,1.0,0.55,False,False,1.27546220000022
101,2.0,234.0,10.99,12.1,1.0,0.55,False,False,1.1222812000000886
101,2.0,236.0,21.07,82.25,1.0,0.55,False,True,1.2519659999998112
101,2.0,238.0,7.82,12.72,1.0,0.55,False,True,1.7824476999999206
101,2.0,240.0,5.44,6.13,1.0,0.55,False,False,1.19301570000016
101,2.0,242.0,5.23,14.18,1.0,0.55,False,True,1.287584700000025
101,2.0,244.0,15.5,61.64,1.0,0.55,False,True,1.2401076000001012
101,2.0,246.0,9.62,21.63,1.0,0.55,False,False,1.2048009000000093
101,2.0,248.0,18.6,19.33,1.0,0.55,False,False,1.263935400000264
101,2.0,250.0,20.62,56.01,1.0,0.55,False,False,0.8393284999997377
101,2.0,252.0,24.11,64.35,1.0,0.55,False,False,1.2047676000001957
101,2.0,254.0,8.86,12.4,1.0,0.55,False,False,1.0161253999999644
101,2.0,256.0,5.11,15.19,1.0,0.55,False,True,1.4054267000001346
101,3.0,225.0,59.22,16.2,0.55,1.0,True,True,1.393423200000143
101,3.0,227.0,37.68,16.08,0.55,1.0,True,True,0.9571505999997498
101,3.0,229.0,23.84,8.24,0.55,1.0,True,True,1.4995671000001494
101,3.0,231.0,52.63,24.53,0.55,1.0,True,True,1.240141300000232
101,3.0,233.0,12.6,5.35,0.55,1.0,True,True,0.8275539999999637
101,3.0,235.0,25.03,9.83,0.55,1.0,True,True,1.0987166999998408
101,3.0,237.0,48.59,21.69,0.55,1.0,True,True,0.9002803000003041
101,3.0,239.0,64.62,25.44,0.55,1.0,True,True,0.886577600000237
101,3.0,241.0,22.27,9.79,0.55,1.0,True,True,0.9336268000001836
101,3.0,243.0,21.34,6.95,0.55,1.0,True,False,1.051516200000151
101,3.0,245.0,40.03,11.48,0.55,1.0,True,False,1.499515799999699
101,3.0,247.0,26.04,8.79,0.55,1.0,True,False,1.157692600000246
101,3.0,249.0,29.49,23.77,0.55,1.0,True,True,1.0397997000000032
101,3.0,251.0,68.31,21.67,0.55,1.0,True,True,0.9454335999998876
101,3.0,253.0,68.49,19.28,0.55,1.0,True,False,0.9689376999999696
101,3.0,255.0,24.58,10.08,0.55,1.0,True,False,1.051540699999805
101,3.0,226.0,5.99,16.32,1.0,0.55,False,True,0.6389733999999407
101,3.0,228.0,14.27,37.29,1.0,0.55,False,False,1.08700940000017
101,3.0,230.0,6.18,17.43,1.0,0.55,False,True,0.9807306000002428
101,3.0,232.0,27.95,61.48,1.0,0.55,False,False,0.6271998000001986
101,3.0,234.0,6.02,12.17,1.0,0.55,False,True,1.0044487000000115
101,3.0,236.0,9.32,36.15,1.0,0.55,False,True,1.0751137000002018
101,3.0,238.0,23.08,37.74,1.0,0.55,False,True,0.9454906999999366
101,3.0,240.0,15.91,59.62,1.0,0.55,False,False,1.1812910000003285
101,3.0,242.0,10.0,14.87,1.0,0.55,False,False,1.1104458000004342
101,3.0,244.0,24.45,42.41,1.0,0.55,False,False,0.8040106999997079
101,3.0,246.0,8.83,15.12,1.0,0.55,False,True,0.862945899999886
101,3.0,248.0,21.41,66.28,1.0,0.55,False,True,0.9809040999998616
101,3.0,250.0,12.88,27.46,1.0,0.55,False,True,1.346294499999658
101,3.0,252.0,12.94,24.8,1.0,0.55,False,True,0.8275982000000113
101,3.0,254.0,6.99,12.89,1.0,0.55,False,True,1.2521130000000085
101,3.0,256.0,10.44,40.57,1.0,0.55,False,True,1.0044686999999612
101,4.0,225.0,70.22,21.66,0.55,1.0,True,True,0.9454032999997252
101,4.0,227.0,19.72,12.29,0.55,1.0,True,True,1.0162594999997054
101,4.0,229.0,28.09,8.67,0.55,1.0,True,False,0.9337926999996852
101,4.0,231.0,48.65,18.81,0.55,1.0,True,True,1.1695200999997724
101,4.0,233.0,30.73,19.83,0.55,1.0,True,True,1.4171667999999045
101,4.0,235.0,43.29,19.64,0.55,1.0,True,True,1.0398432999995748
101,4.0,237.0,31.52,8.65,0.55,1.0,True,False,0.8748497000001407
101,4.0,239.0,28.04,7.4,0.55,1.0,True,False,1.0634274999997615
101,4.0,241.0,12.22,6.07,0.55,1.0,True,True,1.2402095999996163
101,4.0,243.0,37.05,19.16,0.55,1.0,True,True,1.1577512999997452
101,4.0,245.0,17.58,12.57,0.55,1.0,True,True,1.0397855000001073
101,4.0,247.0,29.52,9.04,0.55,1.0,True,False,0.9005160000001524
101,4.0,249.0,22.23,9.11,0.55,1.0,True,False,1.0869895999999244
101,4.0,251.0,27.7,17.96,0.55,1.0,True,True,1.01620180000009
101,4.0,253.0,24.66,11.23,0.55,1.0,True,False,1.122298500000397
101,4.0,255.0,27.38,7.58,0.55,1.0,True,False,0.9573449999998048
101,4.0,226.0,7.83,23.94,1.0,0.55,False,True,0.7451740999999856
101,4.0,228.0,7.17,17.98,1.0,0.55,False,False,1.2166571000002475
101,4.0,230.0,6.32,23.93,1.0,0.55,False,True,0.9218817999999374
101,4.0,232.0,11.55,41.03,1.0,0.55,False,True,0.9572167999999692
101,4.0,234.0,19.7,46.97,1.0,0.55,False,False,0.93363219999992
101,4.0,236.0,6.94,15.85,1.0,0.55,False,True,0.7804898999997931
101,4.0,238.0,15.15,21.0,1.0,0.55,False,False,1.122421900000063
101,4.0,240.0,17.7,22.55,1.0,0.55,False,False,1.1223878000000695
101,4.0,242.0,7.44,24.51,1.0,0.55,False,True,1.0751940000000104
101,4.0,244.0,8.6,25.17,1.0,0.55,False,True,1.075194300000021
101,4.0,246.0,24.22,25.09,1.0,0.55,False,False,1.1342867000003023
101,4.0,248.0,24.68,89.2,1.0,0.55,False,False,1.1105487999998331
101,4.0,250.0,8.05,21.41,1.0,0.55,False,True,1.2638566000000535
101,4.0,252.0,17.38,17.41,1.0,0.55,False,False,1.3463846999998168
101,4.0,254.0,8.42,15.68,1.0,0.55,False,False,1.3346749000002092
101,4.0,256.0,8.2,13.56,1.0,0.55,False,True,1.122375799999645
101,5.0,225.0,11.66,22.21,1.0,0.55,False,True,1.6528929000000971
101,5.0,227.0,7.62,14.67,1.0,0.55,False,False,1.1695572000003267
101,5.0,229.0,10.06,27.06,1.0,0.55,False,True,1.3935740000001715
101,5.0,231.0,5.39,17.58,1.0,0.55,False,True,0.7333444999999301
101,5.0,233.0,22.69,22.83,1.0,0.55,False,False,1.275661300000138
101,5.0,235.0,18.61,34.56,1.0,0.55,False,False,1.193355700000211
101,5.0,237.0,8.18,10.16,1.0,0.55,False,False,1.098874700000124
101,5.0,239.0,16.82,47.67,1.0,0.55,False,True,1.0755290000001878
101,5.0,241.0,11.01,17.52,1.0,0.55,False,False,0.9808216999999786
101,5.0,243.0,11.76,13.75,1.0,0.55,False,False,1.0162209999998597
101,5.0,245.0,6.38,24.47,1.0,0.55,False,True,1.0634681000001365
101,5.0,247.0,6.22,20.12,1.0,0.55,False,True,1.039845900000273
101,5.0,249.0,8.48,24.18,1.0,0.55,False,True,0.9338007999999718
101,5.0,251.0,13.52,19.14,1.0,0.55,False,False,1.1342759000003753
101,5.0,253.0,9.0,33.5,1.0,0.55,False,True,1.0281491000000642
101,5.0,255.0,7.02,24.49,1.0,0.55,False,True,0.9220030999999836
101,5.0,226.0,56.49,19.65,0.55,1.0,True,True,0.9927084000000832
101,5.0,228.0,16.5,8.4,0.55,1.0,True,False,1.1695590999997876
101,5.0,230.0,25.77,7.03,0.55,1.0,True,False,1.063477400000011
101,5.0,232.0,19.59,6.77,0.55,1.0,True,False,0.9219750000002024
101,5.0,234.0,9.83,5.35,0.55,1.0,True,False,0.8515676000001804
101,5.0,236.0,59.32,16.48,0.55,1.0,True,True,0.8394788999999037
101,5.0,238.0,75.96,22.24,0.55,1.0,True,True,1.0635354999999436
101,5.0,240.0,22.64,19.64,0.55,1.0,True,True,0.7923923000003015
101,5.0,242.0,23.63,7.1,0.55,1.0,True,False,0.9337832000001072
101,5.0,244.0,65.41,18.86,0.55,1.0,True,False,0.8395636999998715
101,5.0,246.0,18.84,6.08,0.55,1.0,True,False,1.0755089999997836
101,5.0,248.0,17.41,12.45,0.55,1.0,True,True,1.1460664000001088
101,5.0,250.0,37.83,12.94,0.55,1.0,True,False,1.1460076000003028
101,5.0,252.0,22.4,17.06,0.55,1.0,True,True,0.9340320999999676
101,5.0,254.0,18.51,6.32,0.55,1.0,True,False,0.9455717999999252
101,5.0,256.0,12.67,8.52,0.55,1.0,True,False,1.0988330000000133
101,6.0,225.0,15.0,13.72,0.55,1.0,True,True,0.9808995000003052
101,6.0,227.0,19.64,7.7,0.55,1.0,True,False,0.9220346000001882
101,6.0,229.0,27.89,8.36,0.55,1.0,True,False,1.1342999000003149
101,6.0,231.0,11.87,6.16,0.55,1.0,True,False,1.028132899999946
101,6.0,233.0,82.62,24.15,0.55,1.0,True,True,1.0400838999998996
101,6.0,235.0,20.63,11.79,0.55,1.0,True,False,1.075254799999584
101,6.0,237.0,17.39,6.49,0.55,1.0,True,False,1.1695967999999084
101,6.0,239.0,37.46,11.81,0.55,1.0,True,False,0.8279563000000962
101,6.0,241.0,12.34,6.42,0.55,1.0,True,True,0.851410499999929
101,6.0,243.0,18.09,10.06,0.55,1.0,True,False,1.0398973000001206
101,6.0,245.0,79.01,22.15,0.55,1.0,True,False,1.0989886999996088
101,6.0,247.0,17.57,11.06,0.55,1.0,True,True,0.9576802000001408
101,6.0,249.0,89.03,27.62,0.55,1.0,True,False,1.0281105999997635
101,6.0,251.0,11.1,6.35,0.55,1.0,True,False,1.2286746999998286
101,6.0,253.0,20.92,7.6,0.55,1.0,True,False,1.2639415999997254
101,6.0,255.0,21.74,5.57,0.55,1.0,True,False,1.2763295999998263
101,6.0,226.0,9.27,35.12,1.0,0.55,False,True,1.1696233000002394
101,6.0,228.0,5.02,13.16,1.0,0.55,False,True,1.1342748000001848
101,6.0,230.0,6.44,25.18,1.0,0.55,False,True,0.8867583000001105
101,6.0,232.0,5.97,21.35,1.0,0.55,False,True,0.7216831000000639
101,6.0,234.0,6.3,24.37,1.0,0.55,False,True,0.7927068000003601
101,6.0,236.0,6.53,20.41,1.0,0.55,False,True,0.8632468000000699
101,6.0,238.0,19.22,29.08,1.0,0.55,False,False,0.9812414000002718
101,6.0,240.0,23.29,78.18,1.0,0.55,False,False,1.1225322000000233
101,6.0,242.0,21.08,35.38,1.0,0.55,False,False,1.3583702999999332
101,6.0,244.0,8.74,19.68,1.0,0.55,False,True,1.0281594999996742
101,6.0,246.0,7.22,28.17,1.0,0.55,False,True,0.7218026999998983
101,6.0,248.0,6.37,10.79,1.0,0.55,False,False,1.1579497000002448
101,6.0,250.0,15.33,17.87,1.0,0.55,False,False,1.169683200000236
101,6.0,252.0,13.44,16.41,1.0,0.55,False,False,1.2757845000000998
101,6.0,254.0,10.49,26.1,1.0,0.55,False,False,1.2169380999998791
101,6.0,256.0,19.68,49.41,1.0,0.55,False,False,1.6295178000000303
101,7.0,225.0,19.3,35.44,1.0,0.55,False,False,1.1225190000000111
101,7.0,227.0,22.69,71.65,1.0,0.55,False,False,1.2523400999998555
101,7.0,229.0,19.07,48.51,1.0,0.55,False,False,1.087190700000065
101,7.0,231.0,8.15,17.62,1.0,0.55,False,True,1.4172923999999512
101,7.0,233.0,7.69,16.92,1.0,0.55,False,True,1.2053425999997671
101,7.0,235.0,8.43,31.76,1.0,0.55,False,True,1.1343472999997175
101,7.0,237.0,9.3,11.11,1.0,0.55,False,False,1.0753647999999885
101,7.0,239.0,11.45,38.68,1.0,0.55,False,True,1.098924899999929
101,7.0,241.0,9.75,33.32,1.0,0.55,False,True,0.9574701999999888
101,7.0,243.0,13.09,33.72,1.0,0.55,False,True,0.8160577999997258
101,7.0,245.0,5.58,18.22,1.0,0.55,False,True,0.9931352000003244
101,7.0,247.0,8.31,15.06,1.0,0.55,False,False,1.169696799999656
101,7.0,249.0,7.13,8.22,1.0,0.55,False,False,1.6884282999999414
101,7.0,251.0,7.07,8.84,1.0,0.55,False,False,1.1225992000004226
101,7.0,253.0,7.25,26.71,1.0,0.55,False,True,1.0754001999998763
101,7.0,255.0,19.31,56.18,1.0,0.55,False,True,1.1461790999996992
101,7.0,226.0,25.06,8.75,0.55,1.0,True,False,1.146096199999647
101,7.0,228.0,34.1,21.22,0.55,1.0,True,True,1.028249699999833
101,7.0,230.0,20.18,10.1,0.55,1.0,True,False,1.1107332000001406
101,7.0,232.0,22.66,10.61,0.55,1.0,True,False,1.1225936999999249
101,7.0,234.0,18.97,13.72,0.55,1.0,True,True,1.0399899999997615
101,7.0,236.0,25.19,10.11,0.55,1.0,True,False,1.1343041999998604
101,7.0,238.0,34.41,24.21,0.55,1.0,True,False,2.06571729999996
101,7.0,240.0,25.59,19.93,0.55,1.0,True,True,1.0046111999999994
101,7.0,242.0,29.82,8.14,0.55,1.0,True,False,1.028279499999826
101,7.0,244.0,36.12,25.48,0.55,1.0,True,True,0.9221582000000126
101,7.0,246.0,45.26,16.07,0.55,1.0,True,False,1.146187800000007
101,7.0,248.0,14.54,12.63,0.55,1.0,True,True,1.216889700000138
101,7.0,250.0,39.8,10.07,0.55,1.0,True,False,1.0872506999999132
101,7.0,252.0,25.36,17.63,0.55,1.0,True,True,0.96928059999982
101,7.0,254.0,20.41,7.68,0.55,1.0,True,False,1.0989704000003258
101,7.0,256.0,8.6,7.55,0.55,1.0,True,True,1.2877417999998215
101,8.0,225.0,23.37,27.14,1.0,0.55,False,False,1.39381960000037
101,8.0,227.0,24.54,63.86,1.0,0.55,False,True,1.240766999999778
101,8.0,229.0,23.25,48.99,1.0,0.55,False,False,1.40539119999994
101,8.0,231.0,9.58,25.06,1.0,0.55,False,True,1.322996899999907
101,8.0,233.0,5.32,10.89,1.0,0.55,False,False,1.0282560999999075
101,8.0,235.0,9.82,15.12,1.0,0.55,False,False,1.0872800999995889
101,8.0,237.0,23.94,67.61,1.0,0.55,False,True,1.0872165999999197
101,8.0,239.0,7.78,21.45,1.0,0.55,False,True,1.1816208999998707
101,8.0,241.0,7.71,24.45,1.0,0.55,False,True,1.0872706000000107
101,8.0,243.0,25.7,66.52,1.0,0.55,False,False,0.7690068000001702
101,8.0,245.0,18.66,33.25,1.0,0.55,False,False,0.8868611999996574
101,8.0,247.0,7.61,24.82,1.0,0.55,False,False,1.158054499999707
101,8.0,249.0,22.89,43.68,1.0,0.55,False,True,1.0872620000000095
101,8.0,251.0,24.61,80.51,1.0,0.55,False,False,0.6274686999995538
101,8.0,253.0,18.31,65.57,1.0,0.55,False,True,0.7572134000001824
101,8.0,255.0,10.32,39.88,1.0,0.55,False,True,1.1109262999998464
101,8.0,226.0,34.56,9.86,0.55,1.0,True,False,1.0991114000007656
101,8.0,228.0,17.82,7.89,0.55,1.0,True,False,1.158053099999961
101,8.0,230.0,11.27,6.43,0.55,1.0,True,True,1.4291795999997703
101,8.0,232.0,6.52,5.01,0.55,1.0,True,True,1.0754816999997274
101,8.0,234.0,20.34,13.31,0.55,1.0,True,True,1.2993083000001209
101,8.0,236.0,49.8,19.82,0.55,1.0,True,True,1.1108700999993744
101,8.0,238.0,28.49,26.98,0.55,1.0,True,True,1.146238199999971
101,8.0,240.0,5.17,5.02,0.55,1.0,True,True,0.9103365999999368
101,8.0,242.0,11.78,10.12,0.55,1.0,True,True,0.9456538000004002
101,8.0,244.0,34.5,9.96,0.55,1.0,True,True,0.9928901000002952
101,8.0,246.0,34.9,9.8,0.55,1.0,True,False,0.8044213000002856
101,8.0,248.0,11.09,8.39,0.55,1.0,True,True,1.087300299999697
101,8.0,250.0,27.57,19.6,0.55,1.0,True,True,1.0401989000001777
101,8.0,252.0,27.51,19.09,0.55,1.0,True,True,1.110851800000091
101,8.0,254.0,56.46,15.7,0.55,1.0,True,False,0.8280045999999857
101,8.0,256.0,85.62,24.51,0.55,1.0,True,False,0.7336617999999362
102,1.0,225.0,22.55,35.55,1.0,0.55,False,True,2.7843622000000323
102,1.0,227.0,15.0,38.88,1.0,0.55,False,True,2.0063601000001654
102,1.0,229.0,12.14,38.63,1.0,0.55,False,True,0.7095412999997279
102,1.0,231.0,5.94,14.26,1.0,0.55,False,True,1.1928296000000955
102,1.0,233.0,6.32,10.2,1.0,0.55,False,True,0.6624292000001333
102,1.0,235.0,10.12,22.23,1.0,0.55,False,True,1.2989827000001242
102,1.0,237.0,5.06,16.74,1.0,0.55,False,True,2.147770300000047
102,1.0,239.0,6.82,7.4,1.0,0.55,False,False,1.994471099999828
102,1.0,241.0,8.66,25.95,1.0,0.55,False,True,1.6526048999999148
102,1.0,243.0,18.82,33.98,1.0,0.55,False,True,1.1574955999999474
102,1.0,245.0,17.11,60.43,1.0,0.55,False,True,1.3579311000003145
102,1.0,247.0,16.69,35.88,1.0,0.55,False,True,1.0985561000002235
102,1.0,249.0,10.33,19.47,1.0,0.55,False,True,1.2756429999999457
102,1.0,251.0,16.07,20.15,1.0,0.55,False,False,1.2282009000000471
102,1.0,253.0,8.16,23.54,1.0,0.55,False,True,1.3932212999998228
102,1.0,255.0,12.83,30.51,1.0,0.55,False,True,1.1810334000001603
102,1.0,226.0,9.93,6.09,0.55,1.0,True,True,1.5465306000000965
102,1.0,228.0,34.65,13.49,0.55,1.0,True,False,1.1692313999997168
102,1.0,230.0,32.55,21.19,0.55,1.0,True,False,0.7684542000001784
102,1.0,232.0,24.93,6.81,0.55,1.0,True,False,1.299010900000212
102,1.0,234.0,17.75,11.4,0.55,1.0,True,False,1.6762837000001127
102,1.0,236.0,26.11,20.3,0.55,1.0,True,False,1.4286529000000885
102,1.0,238.0,55.43,20.29,0.55,1.0,True,False,1.2047184999996716
102,1.0,240.0,58.14,18.82,0.55,1.0,True,False,0.9924004999998032
102,1.0,242.0,19.06,8.33,0.55,1.0,True,False,1.0042614999997568
102,1.0,244.0,35.67,15.18,0.55,1.0,True,False,1.2636435999997957
102,1.0,246.0,23.47,16.23,0.55,1.0,True,False,1.2282850000001415
102,1.0,248.0,43.02,17.92,0.55,1.0,True,False,0.5798032000002422
102,1.0,250.0,32.68,8.3,0.55,1.0,True,False,0.8863522000001467
102,1.0,252.0,17.36,7.09,0.55,1.0,True,False,1.0631725999996888
102,1.0,254.0,42.18,20.31,0.55,1.0,True,False,1.5112675999998828
102,1.0,256.0,12.69,6.74,0.55,1.0,True,True,0.9001547000002574
102,2.0,225.0,36.74,19.94,0.55,1.0,True,True,0.8628294000000096
102,2.0,227.0,64.56,16.72,0.55,1.0,True,False,2.2892572000000655
102,2.0,229.0,54.39,18.42,0.55,1.0,True,False,0.8274350000001505
102,2.0,231.0,15.2,14.37,0.55,1.0,True,True,0.8274019000000408
102,2.0,233.0,28.73,9.46,0.55,1.0,True,False,1.1104230000000823
102,2.0,235.0,37.82,13.56,0.55,1.0,True,False,1.051428499999929
102,2.0,237.0,13.39,5.5,0.55,1.0,True,False,0.8274272000003293
102,2.0,239.0,43.12,13.45,0.55,1.0,True,False,0.8274204999997892
102,2.0,241.0,33.86,9.64,0.55,1.0,True,False,0.8628665999999612
102,2.0,243.0,16.69,8.87,0.55,1.0,True,False,1.0985789000001205
102,2.0,245.0,23.56,14.12,0.55,1.0,True,True,0.8038659000003463
102,2.0,247.0,32.03,9.62,0.55,1.0,True,False,0.7449318999997558
102,2.0,249.0,48.13,12.49,0.55,1.0,True,False,1.2636225000001104
102,2.0,251.0,31.47,10.79,0.55,1.0,True,False,0.8038643999998385
102,2.0,253.0,20.56,14.58,0.55,1.0,True,True,0.9924154000000271
102,2.0,255.0,12.15,8.93,0.55,1.0,True,True,1.228260799999589
102,2.0,226.0,19.88,71.78,1.0,0.55,False,True,1.3343964000000597
102,2.0,228.0,12.77,49.26,1.0,0.55,False,True,1.0396623000001457
102,2.0,230.0,13.85,30.49,1.0,0.55,False,True,1.016117099999974
102,2.0,232.0,9.46,17.54,1.0,0.55,False,False,1.5938303000002634
102,2.0,234.0,5.51,11.25,1.0,0.55,False,True,1.0514274000001933
102,2.0,236.0,10.66,25.59,1.0,0.55,False,False,0.8629141999999774
102,2.0,238.0,17.97,19.12,1.0,0.55,False,False,1.2165405000000646
102,2.0,240.0,21.01,26.85,1.0,0.55,False,False,1.2401261999998496
102,2.0,242.0,5.68,11.31,1.0,0.55,False,True,1.169356699999753
102,2.0,244.0,10.14,28.28,1.0,0.55,False,True,1.6998343999998724
102,2.0,246.0,7.13,13.86,1.0,0.55,False,True,1.7708425000000716
102,2.0,248.0,5.6,21.97,1.0,0.55,False,True,1.086829200000011
102,2.0,250.0,8.4,9.68,1.0,0.55,False,False,1.3698002999999517
102,2.0,252.0,5.95,7.7,1.0,0.55,False,False,1.181126100000256
102,2.0,254.0,16.44,52.88,1.0,0.55,False,True,1.3933403000000908
102,2.0,256.0,19.1,67.52,1.0,0.55,False,True,1.2165030000001025
102,3.0,225.0,20.07,6.0,0.55,1.0,True,False,1.487737400000242
102,3.0,227.0,36.21,16.01,0.55,1.0,True,False,2.0771993999996994
102,3.0,229.0,86.4,25.91,0.55,1.0,True,False,1.1457813000001806
102,3.0,231.0,15.99,7.95,0.55,1.0,True,True,0.9924707000000126
102,3.0,233.0,35.07,21.72,0.55,1.0,True,True,0.8865139999998064
102,3.0,235.0,43.81,21.75,0.55,1.0,True,True,1.535153199999968
102,3.0,237.0,41.58,12.93,0.55,1.0,True,False,1.2400744999999915
102,3.0,239.0,44.18,24.24,0.55,1.0,True,True,1.0279392999996162
102,3.0,241.0,35.29,12.3,0.55,1.0,True,False,0.957107199999882
102,3.0,243.0,26.53,7.78,0.55,1.0,True,False,0.9924829000001408
102,3.0,245.0,33.83,11.52,0.55,1.0,True,False,1.1340105999997832
102,3.0,247.0,63.24,17.6,0.55,1.0,True,False,1.1457853000001703
102,3.0,249.0,26.51,24.7,0.55,1.0,True,True,1.1932813999997052
102,3.0,251.0,77.35,26.4,0.55,1.0,True,False,0.8510836000000381
102,3.0,253.0,21.28,19.96,0.55,1.0,True,True,1.6763099999998303
102,3.0,255.0,17.26,7.11,0.55,1.0,True,False,0.8511469000000034
102,3.0,226.0,10.98,16.65,1.0,0.55,False,False,1.098702300000241
102,3.0,228.0,27.23,96.39,1.0,0.55,False,True,0.8157309000002897
102,3.0,230.0,5.83,18.12,1.0,0.55,False,True,0.8629046000000926
102,3.0,232.0,8.94,19.28,1.0,0.55,False,True,1.0279877999996645
102,3.0,234.0,6.19,19.2,1.0,0.55,False,True,0.9925186000000394
102,3.0,236.0,5.05,10.41,1.0,0.55,False,False,1.4051768999997876
102,3.0,238.0,10.33,20.65,1.0,0.55,False,True,1.723494700000174
102,3.0,240.0,26.06,51.37,1.0,0.55,False,False,2.7137393000002703
102,3.0,242.0,21.52,28.83,1.0,0.55,False,False,1.1104663000000985
102,3.0,244.0,14.27,28.55,1.0,0.55,False,True,1.3344403999999486
102,3.0,246.0,7.85,30.74,1.0,0.55,False,True,1.0397087999999712
102,3.0,248.0,14.92,40.16,1.0,0.55,False,True,1.1340908000001946
102,3.0,250.0,5.16,16.62,1.0,0.55,False,True,1.582087100000081
102,3.0,252.0,6.35,14.32,1.0,0.55,False,True,1.299124600000141
102,3.0,254.0,17.52,29.7,1.0,0.55,False,False,1.4408528999997543
102,3.0,256.0,18.45,46.1,1.0,0.55,False,True,1.086948300000131
102,4.0,225.0,82.17,21.67,0.55,1.0,True,False,0.8864890999998352
102,4.0,227.0,16.56,6.53,0.55,1.0,True,False,0.9572008999998616
102,4.0,229.0,18.35,5.09,0.55,1.0,True,False,1.1812535000003663
102,4.0,231.0,20.33,10.88,0.55,1.0,True,True,1.3227092000001903
102,4.0,233.0,50.98,19.16,0.55,1.0,True,False,0.992544100000032
102,4.0,235.0,27.93,7.31,0.55,1.0,True,False,1.0632955999999467
102,4.0,237.0,52.67,24.28,0.55,1.0,True,False,1.0986920000000282
102,4.0,239.0,8.72,8.61,0.55,1.0,True,True,1.664589800000158
102,4.0,241.0,43.16,11.67,0.55,1.0,True,False,1.251925399999891
102,4.0,243.0,26.1,7.96,0.55,1.0,True,False,1.711752400000023
102,4.0,245.0,76.85,20.86,0.55,1.0,True,False,1.334488500000134
102,4.0,247.0,22.41,9.23,0.55,1.0,True,False,1.181197599999905
102,4.0,249.0,40.16,11.2,0.55,1.0,True,False,1.1929841000001034
102,4.0,251.0,13.13,11.25,0.55,1.0,True,True,1.3351075000000492
102,4.0,253.0,13.83,13.18,0.55,1.0,True,True,0.9005186999997932
102,4.0,255.0,40.88,10.35,0.55,1.0,True,False,1.5467045000000326
102,4.0,226.0,26.37,82.48,1.0,0.55,False,True,1.829661600000236
102,4.0,228.0,14.99,36.6,1.0,0.55,False,True,1.2755323000001226
102,4.0,230.0,6.37,17.21,1.0,0.55,False,True,1.2047913000001245
102,4.0,232.0,19.73,62.64,1.0,0.55,False,True,1.0043902000002165
102,4.0,234.0,14.16,54.11,1.0,0.55,False,True,1.5467898000001696
102,4.0,236.0,5.87,22.86,1.0,0.55,False,True,1.3581497999998646
102,4.0,238.0,8.7,33.31,1.0,0.55,False,True,1.4288254999996752
102,4.0,240.0,17.31,17.8,1.0,0.55,False,False,1.5469422999999551
102,4.0,242.0,26.82,93.93,1.0,0.55,False,True,1.2402056999999331
102,4.0,244.0,25.3,50.57,1.0,0.55,False,False,1.3581374000000324
102,4.0,246.0,12.46,21.31,1.0,0.55,False,False,1.5234310999999252
102,4.0,248.0,10.97,43.6,1.0,0.55,False,True,1.3935182000000168
102,4.0,250.0,7.62,23.32,1.0,0.55,False,True,1.3227501999999731
102,4.0,252.0,18.38,55.73,1.0,0.55,False,True,1.1812469999999848
102,4.0,254.0,5.06,8.78,1.0,0.55,False,False,1.6528788999999051
102,4.0,256.0,14.13,44.97,1.0,0.55,False,True,1.7472640999999385
102,5.0,225.0,19.6,5.08,0.55,1.0,True,False,1.299164699999892
102,5.0,227.0,24.07,6.26,0.55,1.0,True,False,1.299240700000155
102,5.0,229.0,59.78,22.82,0.55,1.0,True,False,1.6882129999999052
102,5.0,231.0,18.01,7.26,0.55,1.0,True,False,1.3345210000002226
102,5.0,233.0,10.47,6.9,0.55,1.0,True,True,1.2048549999999525
102,5.0,235.0,19.72,6.67,0.55,1.0,True,False,1.3935706000002028
102,5.0,237.0,18.9,6.69,0.55,1.0,True,False,1.2874297000003023
102,5.0,239.0,34.0,8.97,0.55,1.0,True,False,1.6882439000000886
102,5.0,241.0,33.39,9.79,0.55,1.0,True,False,1.5585737000001243
102,5.0,243.0,13.74,7.97,0.55,1.0,True,True,1.5586234999996122
102,5.0,245.0,92.45,24.93,0.55,1.0,True,False,1.3934838999998649
102,5.0,247.0,75.08,26.83,0.55,1.0,True,False,1.4288753000000725
102,5.0,249.0,18.05,5.39,0.55,1.0,True,False,1.9240971999997785
102,5.0,251.0,43.93,12.07,0.55,1.0,True,False,1.3462049999998271
102,5.0,253.0,40.69,21.84,0.55,1.0,True,True,1.381728800000019
102,5.0,255.0,25.44,11.66,0.55,1.0,True,False,1.263816700000007
102,5.0,226.0,25.84,83.23,1.0,0.55,False,True,1.4642539999999826
102,5.0,228.0,15.92,54.01,1.0,0.55,False,True,1.641158699999778
102,5.0,230.0,10.11,18.15,1.0,0.55,False,False,1.7236275999998725
102,5.0,232.0,9.5,12.31,1.0,0.55,False,False,1.7590721000001397
102,5.0,234.0,7.28,15.72,1.0,0.55,False,True,1.6057670999998663
102,5.0,236.0,18.91,55.08,1.0,0.55,False,True,1.7944203000001837
102,5.0,238.0,12.7,46.82,1.0,0.55,False,True,1.417188200000055
102,5.0,240.0,6.55,18.35,1.0,0.55,False,True,1.8887007000002995
102,5.0,242.0,18.08,51.01,1.0,0.55,False,True,1.6176018000001022
102,5.0,244.0,10.82,14.91,1.0,0.55,False,False,1.9004786000000424
102,5.0,246.0,23.07,88.93,1.0,0.55,False,True,1.900484900000265
102,5.0,248.0,7.03,24.33,1.0,0.55,False,True,1.487854999999854
102,5.0,250.0,24.76,76.51,1.0,0.55,False,True,1.2285587999999734
102,5.0,252.0,12.14,19.52,1.0,0.55,False,False,1.2756293000002188
102,5.0,254.0,24.21,52.51,1.0,0.55,False,True,1.028032500000336
102,5.0,256.0,6.58,20.2,1.0,0.55,False,True,1.2048985000001269
102,6.0,225.0,8.15,31.48,1.0,0.55,False,True,1.0516271999999844
102,6.0,227.0,23.22,69.15,1.0,0.55,False,True,1.0044605000002775
102,6.0,229.0,19.38,43.29,1.0,0.55,False,True,1.0634942000001502
102,6.0,231.0,27.09,28.59,1.0,0.55,False,False,1.4761180999998942
102,6.0,233.0,18.86,26.05,1.0,0.55,False,False,1.2167555000000905
102,6.0,235.0,20.12,23.01,1.0,0.55,False,False,1.3348876000000018
102,6.0,237.0,21.85,35.1,1.0,0.55,False,False,1.9123254000001
102,6.0,239.0,16.27,51.25,1.0,0.55,False,True,1.2050368000000162
102,6.0,241.0,12.4,29.33,1.0,0.55,False,True,1.2993373000003885
102,6.0,243.0,18.67,48.74,1.0,0.55,False,True,1.1695802000003823
102,6.0,245.0,9.01,11.48,1.0,0.55,False,False,1.2874699999997574
102,6.0,247.0,6.34,7.21,1.0,0.55,False,False,1.145987100000184
102,6.0,249.0,14.59,14.61,1.0,0.55,False,False,1.2049401999997826
102,6.0,251.0,23.42,45.37,1.0,0.55,False,False,1.3700371999998424
102,6.0,253.0,9.39,11.41,1.0,0.55,False,False,1.2285707999999431
102,6.0,255.0,9.51,16.05,1.0,0.55,False,False,1.1695606999996926
102,6.0,226.0,37.49,10.01,0.55,1.0,True,False,1.5822852999999668
102,6.0,228.0,10.77,6.75,0.55,1.0,True,True,1.9712592000000768
102,6.0,230.0,18.8,5.16,0.55,1.0,True,False,1.8298984000002747
102,6.0,232.0,29.03,7.34,0.55,1.0,True,False,1.5940709999999854
102,6.0,234.0,17.51,6.68,0.55,1.0,True,False,1.1224693999997726
102,6.0,236.0,51.92,23.27,0.55,1.0,True,False,1.1696876000000884
102,6.0,238.0,9.26,7.73,0.55,1.0,True,True,1.3819008999998914
102,6.0,240.0,57.69,16.84,0.55,1.0,True,False,1.264230199999929
102,6.0,242.0,39.39,15.16,0.55,1.0,True,False,1.051713099999688
102,6.0,244.0,24.08,9.36,0.55,1.0,True,False,1.0871400999999423
102,6.0,246.0,37.95,10.2,0.55,1.0,True,False,1.228550400000131
102,6.0,248.0,11.44,8.13,0.55,1.0,True,True,1.0752929000000222
102,6.0,250.0,23.65,9.42,0.55,1.0,True,False,1.3700549999998657
102,6.0,252.0,40.81,15.81,0.55,1.0,True,False,1.1813726999998837
102,6.0,254.0,88.68,25.18,0.55,1.0,True,False,1.0870675999999548
102,6.0,256.0,34.41,17.36,0.55,1.0,True,True,1.193177900000137
102,7.0,225.0,5.25,14.24,1.0,0.55,False,True,1.110697699999946
102,7.0,227.0,10.45,33.18,1.0,0.55,False,True,1.0517328999999336
102,7.0,229.0,9.63,17.91,1.0,0.55,False,False,1.4525917000000843
102,7.0,231.0,9.86,29.64,1.0,0.55,False,True,1.2993108999999097
102,7.0,233.0,12.87,28.34,1.0,0.55,False,True,1.3228830999996717
102,7.0,235.0,12.84,18.62,1.0,0.55,False,False,1.3818842999999106
102,7.0,237.0,10.92,43.04,1.0,0.55,False,True,1.405423400000018
102,7.0,239.0,22.59,79.9,1.0,0.55,False,True,1.2050696999999673
102,7.0,241.0,12.03,12.7,1.0,0.55,False,False,1.4644505999999635
102,7.0,243.0,9.92,23.24,1.0,0.55,False,True,1.0988771000002089
102,7.0,245.0,5.8,18.89,1.0,0.55,False,True,1.653078899999855
102,7.0,247.0,5.23,16.79,1.0,0.55,False,True,1.193307300000015
102,7.0,249.0,18.81,66.54,1.0,0.55,False,True,1.181433499999912
102,7.0,251.0,9.16,34.74,1.0,0.55,False,True,1.146147700000256
102,7.0,253.0,5.02,15.57,1.0,0.55,False,True,1.452593699999852
102,7.0,255.0,17.61,47.79,1.0,0.55,False,True,1.6294339999999463
102,7.0,226.0,11.18,6.12,0.55,1.0,True,True,1.2050479000004088
102,7.0,228.0,28.8,8.31,0.55,1.0,True,False,1.8298663000000488
102,7.0,230.0,60.07,22.6,0.55,1.0,True,False,1.381876099999772
102,7.0,232.0,30.72,13.48,0.55,1.0,True,False,1.3939118000002964
102,7.0,234.0,28.07,11.44,0.55,1.0,True,False,1.322938400000112
102,7.0,236.0,8.2,7.86,0.55,1.0,True,True,1.2168206999999711
102,7.0,238.0,45.57,11.97,0.55,1.0,True,False,1.2995934999999008
102,7.0,240.0,32.4,24.74,0.55,1.0,True,True,1.264163499999995
102,7.0,242.0,27.83,12.27,0.55,1.0,True,False,1.6412622000002557
102,7.0,244.0,17.43,16.97,0.55,1.0,True,True,1.1578534000000218
102,7.0,246.0,47.46,21.57,0.55,1.0,True,False,1.287570599999981
102,7.0,248.0,17.71,5.67,0.55,1.0,True,False,1.1460935000000063
102,7.0,250.0,13.84,5.61,0.55,1.0,True,False,1.2406692999998086
102,7.0,252.0,24.42,14.34,0.55,1.0,True,True,1.8652563000000555
102,7.0,254.0,27.27,12.45,0.55,1.0,True,False,1.3111653000000842
102,7.0,256.0,17.13,13.03,0.55,1.0,True,True,1.9124292999999852
102,8.0,225.0,6.39,13.02,1.0,0.55,False,False,1.5823356999999303
102,8.0,227.0,10.23,12.69,1.0,0.55,False,False,1.1461591999996017
102,8.0,229.0,10.7,13.51,1.0,0.55,False,False,1.1343434000000343
102,8.0,231.0,5.14,13.48,1.0,0.55,False,True,0.9810480000005556
102,8.0,233.0,16.49,62.84,1.0,0.55,False,True,1.1579006000001757
102,8.0,235.0,5.18,17.88,1.0,0.55,False,False,2.230735199999799
102,8.0,237.0,10.97,13.95,1.0,0.55,False,False,1.2050637999991525
102,8.0,239.0,5.14,17.95,1.0,0.55,False,False,1.8888969999998153
102,8.0,241.0,27.95,42.73,1.0,0.55,False,False,1.205153299999438
102,8.0,243.0,20.11,45.46,1.0,0.55,False,True,1.4526726000003691
102,8.0,245.0,15.05,25.7,1.0,0.55,False,False,1.6531113999999434
102,8.0,247.0,15.21,53.8,1.0,0.55,False,True,1.2758300000004963
102,8.0,249.0,7.32,10.76,1.0,0.55,False,False,1.3232225000001565
102,8.0,251.0,20.07,42.89,1.0,0.55,False,True,1.2994378000003053
102,8.0,253.0,21.33,34.85,1.0,0.55,False,False,1.322978900000635
102,8.0,255.0,11.43,37.69,1.0,0.55,False,True,1.004621699999916
102,8.0,226.0,24.68,11.06,0.55,1.0,True,False,1.4173044999997728
102,8.0,228.0,20.53,14.95,0.55,1.0,True,True,1.5824586000007912
102,8.0,230.0,82.84,24.23,0.55,1.0,True,False,1.9361244000001536
102,8.0,232.0,20.35,16.89,0.55,1.0,True,True,1.2994125000004717
102,8.0,234.0,33.92,18.7,0.55,1.0,True,True,1.193359299999429
102,8.0,236.0,12.66,9.49,0.55,1.0,True,True,1.1697370000001683
102,8.0,238.0,24.6,17.39,0.55,1.0,True,True,1.0400416000002224
102,8.0,240.0,63.99,22.1,0.55,1.0,True,False,1.240480999999818
102,8.0,242.0,32.91,15.12,0.55,1.0,True,False,1.299456900000223
102,8.0,244.0,53.75,16.37,0.55,1.0,True,False,1.2050991999994949
102,8.0,246.0,17.83,7.71,0.55,1.0,True,False,1.1107787000000826
102,8.0,248.0,20.28,7.12,0.55,1.0,True,False,1.2758480000002237
102,8.0,250.0,7.71,5.47,0.55,1.0,True,True,1.2522855999995954
102,8.0,252.0,26.79,6.75,0.55,1.0,True,False,1.1225734999998167
102,8.0,254.0,17.24,6.22,0.55,1.0,True,False,1.6061665000006542
102,8.0,256.0,31.22,10.2,0.55,1.0,True,False,1.9482051999993928
103,1.0,225.0,5.6,8.0,1.0,0.55,False,True,1.6884032999998908
103,1.0,227.0,27.94,66.38,1.0,0.55,False,True,1.9239450999998553
103,1.0,229.0,9.54,16.37,1.0,0.55,False,True,1.464407700000038
103,1.0,231.0,9.73,30.86,1.0,0.55,False,True,1.4644964999999956
103,1.0,233.0,23.77,73.18,1.0,0.55,False,True,1.1104351000001316
103,1.0,235.0,9.53,30.44,1.0,0.55,False,True,0.8748794000000544
103,1.0,237.0,21.18,69.44,1.0,0.55,False,True,1.1694754000000105
103,1.0,239.0,25.15,28.66,1.0,0.55,False,False,1.0750157999998464
103,1.0,241.0,15.17,41.82,1.0,0.55,False,True,1.4760359999997943
103,1.0,243.0,9.52,37.5,1.0,0.55,False,True,0.8510837999999694
103,1.0,245.0,10.2,30.59,1.0,0.55,False,True,0.8510788999999477
103,1.0,247.0,14.45,18.35,1.0,0.55,False,False,1.1692783000000873
103,1.0,249.0,17.45,23.18,1.0,0.55,False,False,1.5468618999998398
103,1.0,251.0,17.52,27.76,1.0,0.55,False,False,1.8885568999999125
103,1.0,253.0,11.28,37.48,1.0,0.55,False,True,1.0750663999999688
103,1.0,255.0,12.08,29.66,1.0,0.55,False,True,1.5466423000000304
103,1.0,226.0,40.73,12.47,0.55,1.0,True,False,1.1813745000001743
103,1.0,228.0,47.78,18.06,0.55,1.0,True,False,1.2873232000001735
103,1.0,230.0,9.95,7.31,0.55,1.0,True,False,1.1457554000000982
103,1.0,232.0,35.96,11.45,0.55,1.0,True,False,1.4169730000000982
103,1.0,234.0,20.2,9.24,0.55,1.0,True,False,1.5586828000000423
103,1.0,236.0,30.86,22.16,0.55,1.0,True,True,1.1461030000000392
103,1.0,238.0,13.78,11.3,0.55,1.0,True,True,0.874925200000007
103,1.0,240.0,33.95,8.59,0.55,1.0,True,False,1.2403735000000324
103,1.0,242.0,40.65,10.32,0.55,1.0,True,False,0.9006306999999651
103,1.0,244.0,30.04,14.73,0.55,1.0,True,False,1.3580630999999812
103,1.0,246.0,46.92,20.32,0.55,1.0,True,False,1.2875392999999349
103,1.0,248.0,68.02,23.97,0.55,1.0,True,False,0.9689685000000736
103,1.0,250.0,34.48,10.79,0.55,1.0,True,False,1.2166151999999784
103,1.0,252.0,17.73,6.58,0.55,1.0,True,False,1.1932491000000027
103,1.0,254.0,22.44,13.34,0.55,1.0,True,True,1.7001970000001163
103,1.0,256.0,37.72,14.89,0.55,1.0,True,False,1.90036820000023
103,2.0,225.0,21.8,11.14,0.55,1.0,True,True,1.6293108000004397
103,2.0,227.0,64.38,17.88,0.55,1.0,True,False,1.2637622000002011
103,2.0,229.0,33.65,14.28,0.55,1.0,True,False,1.2519803999998658
103,2.0,231.0,79.49,23.19,0.55,1.0,True,False,0.99258500000019
103,2.0,233.0,34.17,16.25,0.55,1.0,True,False,1.9239722000002075
103,2.0,235.0,17.58,15.98,0.55,1.0,True,True,1.1932284999998046
103,2.0,237.0,80.39,21.56,0.55,1.0,True,False,1.2875561999999263
103,2.0,239.0,37.88,12.16,0.55,1.0,True,False,1.216607600000316
103,2.0,241.0,9.96,6.07,0.55,1.0,True,True,1.5231127000001834
103,2.0,243.0,16.89,5.14,0.55,1.0,True,False,1.1696697000002132
103,2.0,245.0,15.42,6.94,0.55,1.0,True,False,2.2660738999998102
103,2.0,247.0,10.37,5.16,0.55,1.0,True,False,1.959721900000204
103,2.0,249.0,84.86,23.64,0.55,1.0,True,False,0.8396010999999817
103,2.0,251.0,40.25,16.02,0.55,1.0,True,False,0.9004338999998254
103,2.0,253.0,8.87,7.68,0.55,1.0,True,True,0.9455649999999878
103,2.0,255.0,38.06,24.05,0.55,1.0,True,True,1.122325699999692
103,2.0,226.0,5.73,19.77,1.0,0.55,False,True,1.1105070999997224
103,2.0,228.0,15.85,46.35,1.0,0.55,False,True,1.1105372000001807
103,2.0,230.0,10.95,17.81,1.0,0.55,False,False,1.9122944999999163
103,2.0,232.0,26.33,37.95,1.0,0.55,False,False,1.181420999999773
103,2.0,234.0,7.64,9.18,1.0,0.55,False,False,1.334530699999959
103,2.0,236.0,6.77,16.93,1.0,0.55,False,True,1.1576782000001913
103,2.0,238.0,13.91,22.09,1.0,0.55,False,False,1.80633620000026
103,2.0,240.0,17.8,65.61,1.0,0.55,False,True,0.9690472000002046
103,2.0,242.0,9.69,29.61,1.0,0.55,False,True,0.921895399999812
103,2.0,244.0,5.17,5.7,1.0,0.55,False,False,1.3229903999999806
103,2.0,246.0,13.94,49.66,1.0,0.55,False,True,1.228436999999758
103,2.0,248.0,16.01,63.45,1.0,0.55,False,True,1.2874189000003753
103,2.0,250.0,24.45,78.99,1.0,0.55,False,True,0.8747849000001224
103,2.0,252.0,9.76,36.47,1.0,0.55,False,True,0.8865851999998995
103,2.0,254.0,7.33,25.85,1.0,0.55,False,True,1.1812890000001062
103,2.0,256.0,25.27,39.38,1.0,0.55,False,True,1.4406875999998192
103,3.0,227.0,20.14,57.73,1.0,0.55,False,True,1.252277099999901
103,3.0,229.0,13.94,36.82,1.0,0.55,False,True,0.8276248000001942
103,3.0,231.0,20.91,63.86,1.0,0.55,False,True,0.9006276000000071
103,3.0,233.0,8.66,23.17,1.0,0.55,False,True,1.6764985999998316
103,3.0,235.0,7.47,9.64,1.0,0.55,False,False,1.122381099999984
103,3.0,237.0,9.72,34.09,1.0,0.55,False,True,0.9575055000000248
103,3.0,239.0,6.13,10.49,1.0,0.55,False,False,0.9454792000001362
103,3.0,241.0,16.09,29.39,1.0,0.55,False,False,1.476043799999843
103,3.0,243.0,5.14,12.82,1.0,0.55,False,True,1.1341327000000092
103,3.0,245.0,13.01,14.66,1.0,0.55,False,False,1.0398377999999866
103,3.0,247.0,6.8,17.18,1.0,0.55,False,True,1.1459725999998227
103,3.0,249.0,12.94,40.33,1.0,0.55,False,True,0.9006140999999843
103,3.0,251.0,7.85,30.89,1.0,0.55,False,True,0.8276958000001287
103,3.0,253.0,22.67,81.56,1.0,0.55,False,True,0.7925276999999369
103,3.0,255.0,11.35,26.79,1.0,0.55,False,True,1.0870461999998042
103,3.0,226.0,31.35,7.9,0.55,1.0,True,False,1.7354482000000644
103,3.0,228.0,26.78,14.39,0.55,1.0,True,True,1.122479999999996
103,3.0,230.0,54.68,19.02,0.55,1.0,True,False,2.749520300000313
103,3.0,232.0,58.94,23.59,0.55,1.0,True,False,1.25206339999977
103,3.0,234.0,87.5,25.63,0.55,1.0,True,False,1.2167406999997183
103,3.0,236.0,18.62,9.96,0.55,1.0,True,True,1.441171899999972
103,3.0,238.0,18.48,9.69,0.55,1.0,True,True,1.4055232000000617
103,3.0,240.0,23.57,10.02,0.55,1.0,True,False,1.42914299999984
103,3.0,242.0,16.18,7.66,0.55,1.0,True,True,1.8415340999999896
103,3.0,244.0,34.35,19.17,0.55,1.0,True,True,1.134385999999722
103,3.0,246.0,19.93,14.07,0.55,1.0,True,True,1.1931696000001466
103,3.0,248.0,46.83,13.06,0.55,1.0,True,False,0.9101370000003044
103,3.0,250.0,63.82,26.14,0.55,1.0,True,False,1.275396600000022
103,3.0,252.0,39.7,15.6,0.55,1.0,True,False,1.134204899999986
103,3.0,254.0,84.88,23.81,0.55,1.0,True,False,0.9455400000001646
103,3.0,256.0,7.82,6.63,0.55,1.0,True,True,0.9809024999999564
103,4.0,225.0,10.92,5.39,0.55,1.0,True,True,2.537122199999885
103,4.0,227.0,21.29,13.21,0.55,1.0,True,True,0.8866696000000047
103,4.0,229.0,101.92,27.31,0.55,1.0,True,False,0.7098283000000265
103,4.0,231.0,32.17,11.89,0.55,1.0,True,False,2.0068192999997336
103,4.0,233.0,69.8,19.52,0.55,1.0,True,False,1.1457490000002508
103,4.0,235.0,71.48,22.56,0.55,1.0,True,False,1.0870552000001226
103,4.0,237.0,20.12,19.54,0.55,1.0,True,True,1.38181349999968
103,4.0,239.0,14.46,6.78,0.55,1.0,True,False,1.594254500000261
103,4.0,241.0,17.55,8.02,0.55,1.0,True,False,1.1342177999999876
103,4.0,243.0,73.44,20.39,0.55,1.0,True,False,1.2049824000000626
103,4.0,245.0,10.82,9.09,0.55,1.0,True,True,0.9811540999999124
103,4.0,247.0,57.23,14.5,0.55,1.0,True,False,1.0753093000002991
103,4.0,249.0,35.63,10.17,0.55,1.0,True,False,0.9007427999999892
103,4.0,251.0,23.28,13.13,0.55,1.0,True,True,1.0636051999999836
103,4.0,253.0,35.74,11.56,0.55,1.0,True,False,1.0282074000001558
103,4.0,255.0,20.98,6.03,0.55,1.0,True,False,1.1224714999998469
103,4.0,226.0,6.83,10.61,1.0,0.55,False,False,1.0634746000000632
103,4.0,228.0,18.13,68.15,1.0,0.55,False,True,1.47612990000016
103,4.0,230.0,22.7,48.11,1.0,0.55,False,True,1.5940705000002708
103,4.0,232.0,13.85,38.26,1.0,0.55,False,True,1.1224440000000868
103,4.0,234.0,5.51,19.14,1.0,0.55,False,True,0.9007082999996783
103,4.0,236.0,10.95,27.04,1.0,0.55,False,True,0.9455934999996316
103,4.0,238.0,15.03,18.48,1.0,0.55,False,False,1.1224122999997237
103,4.0,240.0,18.96,31.91,1.0,0.55,False,False,1.2050734999997983
103,4.0,242.0,15.87,16.27,1.0,0.55,False,False,1.0047638999999435
103,4.0,244.0,8.8,20.31,1.0,0.55,False,True,1.1816321999999673
103,4.0,246.0,28.0,40.54,1.0,0.55,False,False,1.7712201999997887
103,4.0,248.0,27.13,64.03,1.0,0.55,False,True,1.2757409000000737
103,4.0,250.0,8.16,21.28,1.0,0.55,False,True,0.9691627999995944
103,4.0,252.0,23.1,69.04,1.0,0.55,False,True,0.9809983000000102
103,4.0,254.0,14.34,52.04,1.0,0.55,False,True,1.1106824999997116
103,4.0,256.0,7.78,22.27,1.0,0.55,False,True,0.8751090000000659
103,5.0,225.0,24.82,18.92,0.55,1.0,True,True,1.0166050999996514
103,5.0,227.0,37.82,10.11,0.55,1.0,True,False,1.7119505999999092
103,5.0,229.0,14.08,5.41,0.55,1.0,True,False,1.4880220000000008
103,5.0,231.0,25.36,6.58,0.55,1.0,True,False,0.9010026000000836
103,5.0,233.0,23.3,12.88,0.55,1.0,True,True,2.0069651999997404
103,5.0,235.0,11.65,6.9,0.55,1.0,True,True,1.5115725999999086
103,5.0,237.0,43.7,11.35,0.55,1.0,True,False,1.2403880000001664
103,5.0,239.0,22.62,14.78,0.55,1.0,True,True,1.2527166999998371
103,5.0,241.0,15.6,9.13,0.55,1.0,True,True,1.1224803000000063
103,5.0,243.0,19.55,16.37,0.55,1.0,True,True,0.8041994999998678
103,5.0,245.0,21.22,6.15,0.55,1.0,True,False,1.146086799999921
103,5.0,247.0,37.89,10.95,0.55,1.0,True,False,0.8749839000001884
103,5.0,249.0,30.31,13.4,0.55,1.0,True,False,1.2050261999997929
103,5.0,251.0,19.63,6.1,0.55,1.0,True,False,1.1107445000002372
103,5.0,253.0,37.09,21.74,0.55,1.0,True,True,1.4881478000002062
103,5.0,255.0,12.97,9.79,0.55,1.0,True,True,0.957635400000072
103,5.0,226.0,8.25,11.94,1.0,0.55,False,False,1.1225223999999798
103,5.0,228.0,8.82,33.11,1.0,0.55,False,True,1.6884094000001824
103,5.0,230.0,16.27,52.35,1.0,0.55,False,True,1.075395800000024
103,5.0,232.0,21.92,58.17,1.0,0.55,False,True,0.9008340999998836
103,5.0,234.0,5.62,11.4,1.0,0.55,False,True,1.0753859999999804
103,5.0,236.0,26.81,48.79,1.0,0.55,False,False,1.3347459999999955
103,5.0,238.0,8.25,18.86,1.0,0.55,False,True,1.028185499999836
103,5.0,240.0,23.19,48.72,1.0,0.55,False,True,1.0520253999998204
103,5.0,242.0,7.69,19.6,1.0,0.55,False,True,0.8278564999995979
103,5.0,244.0,6.65,24.31,1.0,0.55,False,True,0.7926663000002918
103,5.0,246.0,14.91,20.5,1.0,0.55,False,False,1.2878441000002567
103,5.0,248.0,9.91,30.46,1.0,0.55,False,True,1.3583616999999322
103,5.0,250.0,24.54,89.53,1.0,0.55,False,True,0.9810566999999536
103,5.0,252.0,19.13,27.23,1.0,0.55,False,False,1.6766810999997688
103,5.0,254.0,5.8,22.21,1.0,0.55,False,True,1.0403034999999363
103,5.0,256.0,10.31,14.18,1.0,0.55,False,False,1.169738000000052
103,6.0,225.0,26.72,85.87,1.0,0.55,False,True,0.922329600000012
103,6.0,227.0,18.09,52.63,1.0,0.55,False,True,2.313250500000322
103,6.0,229.0,7.77,30.62,1.0,0.55,False,True,0.8398089000002074
103,6.0,231.0,12.89,19.04,1.0,0.55,False,False,1.18155089999982
103,6.0,233.0,13.25,51.06,1.0,0.55,False,True,1.0164654999998677
103,6.0,235.0,23.19,48.28,1.0,0.55,False,True,1.311221999999816
103,6.0,237.0,7.74,27.23,1.0,0.55,False,True,1.5590016000001017
103,6.0,239.0,21.94,49.12,1.0,0.55,False,True,1.0756420000002436
103,6.0,241.0,26.01,102.12,1.0,0.55,False,True,0.8398721000003206
103,6.0,243.0,7.75,22.92,1.0,0.55,False,True,0.7807014999998501
103,6.0,245.0,5.95,10.85,1.0,0.55,False,False,1.4882268000001204
103,6.0,247.0,10.48,17.98,1.0,0.55,False,False,0.8396737000002759
103,6.0,249.0,19.78,67.25,1.0,0.55,False,True,1.1697650000000976
103,6.0,251.0,10.95,25.51,1.0,0.55,False,True,1.1580251000000317
103,6.0,253.0,6.23,15.65,1.0,0.55,False,True,0.9102574000003189
103,6.0,255.0,9.45,11.1,1.0,0.55,False,False,1.2051475000002938
103,6.0,226.0,11.94,8.2,0.55,1.0,True,True,1.1461830999996891
103,6.0,228.0,26.37,9.55,0.55,1.0,True,False,0.9574938000000656
103,6.0,230.0,25.26,20.86,0.55,1.0,True,True,1.523681199999828
103,6.0,232.0,29.46,9.38,0.55,1.0,True,False,1.0873862999997073
103,6.0,234.0,55.04,19.14,0.55,1.0,True,False,1.169989500000156
103,6.0,236.0,76.69,27.44,0.55,1.0,True,False,1.4650527999997394
103,6.0,238.0,32.78,12.74,0.55,1.0,True,False,0.9102963000000271
103,6.0,240.0,15.23,9.69,0.55,1.0,True,True,1.0285541999996894
103,6.0,242.0,45.72,17.59,0.55,1.0,True,False,0.9009885000000396
103,6.0,244.0,6.94,5.2,0.55,1.0,True,True,2.2426540999999816
103,6.0,246.0,37.66,15.98,0.55,1.0,True,False,0.9341114999997444
103,6.0,248.0,17.56,11.61,0.55,1.0,True,True,0.7925482999999076
103,6.0,250.0,11.54,9.91,0.55,1.0,True,False,1.664958100000149
103,6.0,252.0,83.26,21.07,0.55,1.0,True,False,1.924303400000099
103,6.0,254.0,82.4,22.18,0.55,1.0,True,False,1.0757382000001598
103,6.0,256.0,37.12,18.94,0.55,1.0,True,True,1.4998898999997436
103,7.0,225.0,37.94,10.51,0.55,1.0,True,False,1.0401137000003473
103,7.0,227.0,48.83,24.79,0.55,1.0,True,True,1.5235677000000578
103,7.0,229.0,19.5,6.54,0.55,1.0,True,False,1.0402948000000831
103,7.0,231.0,23.16,5.88,0.55,1.0,True,False,1.1345221999999922
103,7.0,233.0,24.49,6.51,0.55,1.0,True,False,0.9222210000002632
103,7.0,235.0,19.04,6.28,0.55,1.0,True,False,0.945756000000074
103,7.0,237.0,48.15,25.94,0.55,1.0,True,True,1.393820400000095
103,7.0,239.0,15.57,14.62,0.55,1.0,True,True,1.2523271000000022
103,7.0,241.0,20.27,12.71,0.55,1.0,True,True,1.393838599999981
103,7.0,243.0,17.82,11.43,0.55,1.0,True,True,1.0990630000001147
103,7.0,245.0,14.21,5.66,0.55,1.0,True,False,0.8515385000000606
103,7.0,247.0,27.56,10.43,0.55,1.0,True,False,2.8202729999998155
103,7.0,249.0,31.69,18.2,0.55,1.0,True,True,0.8753351000000293
103,7.0,251.0,91.98,24.62,0.55,1.0,True,False,0.9931396000001768
103,7.0,253.0,21.78,9.93,0.55,1.0,True,False,0.901089100000263
103,7.0,255.0,18.59,5.41,0.55,1.0,True,False,0.8280252999998083
103,7.0,226.0,23.93,31.6,1.0,0.55,False,False,1.2641419000001406
103,7.0,228.0,8.33,14.38,1.0,0.55,False,False,1.4056172999999037
103,7.0,230.0,20.42,56.07,1.0,0.55,False,True,1.0755106999999953
103,7.0,232.0,8.24,15.86,1.0,0.55,False,True,1.924365999999736
103,7.0,234.0,9.74,29.81,1.0,0.55,False,True,1.028143200000159
103,7.0,236.0,27.47,70.67,1.0,0.55,False,True,1.323104499999772
103,7.0,238.0,16.92,45.54,1.0,0.55,False,True,1.393606300000101
103,7.0,240.0,14.31,34.41,1.0,0.55,False,True,0.8635642000003827
103,7.0,242.0,11.61,38.71,1.0,0.55,False,True,0.8751437000000806
103,7.0,244.0,5.71,13.37,1.0,0.55,False,True,0.7574750999997377
103,7.0,246.0,7.87,24.15,1.0,0.55,False,True,1.146243499999855
103,7.0,248.0,13.78,44.94,1.0,0.55,False,True,0.7926234000001386
103,7.0,250.0,13.27,28.35,1.0,0.55,False,True,1.0991841999998542
103,7.0,252.0,8.21,10.58,1.0,0.55,False,False,1.1698518000002878
103,7.0,254.0,10.88,25.85,1.0,0.55,False,True,0.8044316000000435
103,7.0,256.0,5.66,20.12,1.0,0.55,False,True,0.9929556000001868
103,8.0,225.0,7.54,21.15,1.0,0.55,False,True,0.8044015999998919
103,8.0,227.0,23.48,52.21,1.0,0.55,False,True,0.851578199999949
103,8.0,229.0,7.33,21.25,1.0,0.55,False,True,0.7337696999998116
103,8.0,231.0,7.63,28.2,1.0,0.55,False,True,1.0048114999999598
103,8.0,233.0,11.08,30.43,1.0,0.55,False,True,1.087348099999872
103,8.0,235.0,23.93,90.11,1.0,0.55,False,True,0.8869856000001164
103,8.0,237.0,5.59,18.55,1.0,0.55,False,True,0.910354499999812
103,8.0,239.0,9.4,30.32,1.0,0.55,False,True,0.827991899999688
103,8.0,241.0,17.63,28.06,1.0,0.55,False,False,1.099145199999839
103,8.0,243.0,10.0,36.45,1.0,0.55,False,True,1.0991845999997167
103,8.0,245.0,9.65,23.07,1.0,0.55,False,True,0.9340173999999024
103,8.0,247.0,9.36,33.77,1.0,0.55,False,True,0.8280212999998184
103,8.0,249.0,14.57,20.9,1.0,0.55,False,False,1.07561590000023
103,8.0,251.0,5.11,5.57,1.0,0.55,False,False,1.7829510999995364
103,8.0,253.0,8.01,22.16,1.0,0.55,False,True,1.134510699999737
103,8.0,255.0,21.41,73.27,1.0,0.55,False,True,0.9011755000001358
103,8.0,226.0,6.71,5.48,0.55,1.0,True,True,0.9459780000006504
103,8.0,228.0,19.86,13.22,0.55,1.0,True,True,1.0873831999997492
103,8.0,230.0,47.11,14.42,0.55,1.0,True,False,1.1698743000006289
103,8.0,232.0,20.71,8.89,0.55,1.0,True,False,1.146335600000384
103,8.0,234.0,48.73,21.71,0.55,1.0,True,False,1.4410441999998511
103,8.0,236.0,26.2,7.8,0.55,1.0,True,False,1.4057055000002947
103,8.0,238.0,26.24,9.76,0.55,1.0,True,False,1.0638114000003045
103,8.0,240.0,70.06,18.99,0.55,1.0,True,False,1.05202029999964
103,8.0,242.0,18.47,8.76,0.55,1.0,True,False,1.8652440999994724
103,8.0,244.0,7.93,7.11,0.55,1.0,True,True,1.4647007000003214
103,8.0,246.0,28.34,14.17,0.55,1.0,True,True,1.8537078999997905
103,8.0,248.0,80.75,21.74,0.55,1.0,True,False,1.3233532000003834
103,8.0,250.0,10.49,5.39,0.55,1.0,True,True,0.7573212999996031
103,8.0,252.0,13.17,5.16,0.55,1.0,True,False,1.2760385999999926
103,8.0,254.0,19.99,7.22,0.55,1.0,True,False,1.1345816000002742
103,8.0,256.0,6.88,6.65,0.55,1.0,True,True,1.0638073999998596
104,1.0,225.0,36.23,12.02,0.55,1.0,True,False,1.6054289999999585
104,1.0,227.0,19.25,14.89,0.55,1.0,True,False,2.572247300000072
104,1.0,231.0,86.91,27.75,0.55,1.0,True,True,0.7095480999998927
104,1.0,233.0,75.5,21.64,0.55,1.0,True,True,2.2776040999999623
104,1.0,239.0,49.22,26.31,0.55,1.0,True,True,1.3226044000000456
104,1.0,241.0,46.0,17.9,0.55,1.0,True,True,1.181073799999922
104,1.0,243.0,32.37,13.91,0.55,1.0,True,False,1.0985200000000075
104,1.0,245.0,67.92,23.04,0.55,1.0,True,False,0.7803418999999394
104,1.0,247.0,24.78,10.58,0.55,1.0,True,False,1.9002545000000737
104,1.0,249.0,27.04,23.35,0.55,1.0,True,True,0.8627825999999459
104,1.0,251.0,23.27,18.97,0.55,1.0,True,True,0.8156303999999182
104,1.0,253.0,47.37,12.91,0.55,1.0,True,False,1.0985384000000522
104,1.0,255.0,43.41,19.15,0.55,1.0,True,False,1.0868262999999845
104,1.0,226.0,13.48,53.33,1.0,0.55,False,True,0.7684734999998
104,1.0,228.0,15.22,50.12,1.0,0.55,False,True,0.7448899999999412
104,1.0,230.0,27.92,80.2,1.0,0.55,False,True,0.8156380000000354
104,1.0,232.0,26.38,46.69,1.0,0.55,False,True,0.7802702999999838
104,1.0,234.0,5.93,21.67,1.0,0.55,False,True,0.7920710999999301
104,1.0,236.0,9.61,35.54,1.0,0.55,False,True,0.7213526999998976
104,1.0,238.0,5.05,16.06,1.0,0.55,False,True,0.7213391000000229
104,1.0,240.0,14.71,40.17,1.0,0.55,False,True,0.7331446999999116
104,1.0,242.0,15.39,31.55,1.0,0.55,False,False,0.83925720000002
104,1.0,244.0,24.69,64.92,1.0,0.55,False,True,0.7568060999999489
104,1.0,246.0,9.61,17.18,1.0,0.55,False,True,1.06328829999984
104,1.0,248.0,7.1,8.21,1.0,0.55,False,False,0.9688814999999522
104,1.0,250.0,14.96,30.55,1.0,0.55,False,False,1.2400791000000029
104,1.0,252.0,23.68,61.92,1.0,0.55,False,True,0.7803797000001396
104,1.0,254.0,20.49,57.0,1.0,0.55,False,True,0.7567128000000594
104,1.0,256.0,7.79,20.29,1.0,0.55,False,True,0.8747166000000561
104,2.0,225.0,27.39,15.51,0.55,1.0,True,True,0.96877029999996
104,2.0,227.0,49.44,13.5,0.55,1.0,True,False,0.8746280999998817
104,2.0,229.0,38.31,12.26,0.55,1.0,True,False,0.756735499999877
104,2.0,231.0,18.66,9.18,0.55,1.0,True,False,0.9335269000000608
104,2.0,233.0,72.05,27.91,0.55,1.0,True,False,0.8157631999999921
104,2.0,235.0,15.13,7.77,0.55,1.0,True,True,1.3463160999999673
104,2.0,237.0,21.74,8.24,0.55,1.0,True,False,0.9002201999999215
104,2.0,239.0,66.2,22.01,0.55,1.0,True,False,1.1222007000001213
104,2.0,241.0,14.1,9.57,0.55,1.0,True,True,1.0750169000002645
104,2.0,243.0,32.26,9.47,0.55,1.0,True,False,1.2639380999999048
104,2.0,245.0,11.33,6.03,0.55,1.0,True,True,1.5115660999999818
104,2.0,247.0,9.34,6.49,0.55,1.0,True,True,0.9807169000000612
104,2.0,249.0,20.53,7.84,0.55,1.0,True,False,0.8039671999999882
104,2.0,251.0,22.76,15.68,0.55,1.0,True,True,0.9004499000002397
104,2.0,253.0,50.62,18.52,0.55,1.0,True,False,0.8746768999999404
104,2.0,255.0,22.24,8.43,0.55,1.0,True,False,0.9807700999999724
104,2.0,226.0,26.85,64.39,1.0,0.55,False,True,0.8628734000003533
104,2.0,228.0,24.93,52.46,1.0,0.55,False,True,1.0161846999999398
104,2.0,230.0,15.03,50.37,1.0,0.55,False,True,0.8864840000001095
104,2.0,232.0,9.23,16.23,1.0,0.55,False,False,1.546644500000184
104,2.0,234.0,26.65,43.71,1.0,0.55,False,False,1.1104263000001993
104,2.0,236.0,6.36,25.38,1.0,0.55,False,True,0.9003950000001169
104,2.0,238.0,26.57,77.4,1.0,0.55,False,True,1.039764699999978
104,2.0,240.0,23.73,43.36,1.0,0.55,False,True,1.0750700999997207
104,2.0,242.0,6.97,8.29,1.0,0.55,False,False,1.464213799999925
104,2.0,244.0,14.86,52.36,1.0,0.55,False,True,1.157590600000276
104,2.0,246.0,11.84,12.43,1.0,0.55,False,False,1.405201600000055
104,2.0,248.0,9.91,18.83,1.0,0.55,False,False,2.0418079999999463
104,2.0,250.0,6.67,12.49,1.0,0.55,False,True,1.888575099999798
104,2.0,252.0,5.17,17.14,1.0,0.55,False,True,0.9003417000003537
104,2.0,254.0,6.59,22.93,1.0,0.55,False,True,0.8866299999999683
104,2.0,256.0,10.09,25.01,1.0,0.55,False,True,0.8393624000000273
104,3.0,225.0,5.34,17.36,1.0,0.55,False,True,1.0396958999999697
104,3.0,227.0,18.21,26.74,1.0,0.55,False,False,1.3462773999999629
104,3.0,229.0,14.82,40.68,1.0,0.55,False,True,1.0986598999998023
104,3.0,231.0,10.8,28.38,1.0,0.55,False,False,1.051625599999625
104,3.0,233.0,19.37,20.64,1.0,0.55,False,False,1.4405760999998165
104,3.0,235.0,12.06,14.53,1.0,0.55,False,False,1.0514923000000636
104,3.0,237.0,20.76,82.19,1.0,0.55,False,True,1.122249300000021
104,3.0,239.0,7.88,27.72,1.0,0.55,False,True,0.9220479000000524
104,3.0,241.0,7.42,21.06,1.0,0.55,False,True,0.8512035999997352
104,3.0,243.0,7.47,28.45,1.0,0.55,False,True,0.9808517999999822
104,3.0,245.0,27.01,31.17,1.0,0.55,False,False,0.7451575999998568
104,3.0,247.0,6.36,20.63,1.0,0.55,False,True,0.9099640999997972
104,3.0,249.0,15.53,49.5,1.0,0.55,False,True,0.886556599999949
104,3.0,251.0,18.53,72.5,1.0,0.55,False,True,0.6625323000002936
104,3.0,253.0,10.63,15.17,1.0,0.55,False,False,1.1105814000002283
104,3.0,255.0,17.52,18.69,1.0,0.55,False,False,0.9572213999999803
104,3.0,226.0,28.69,27.71,0.55,1.0,True,True,0.933606300000065
104,3.0,228.0,16.3,6.2,0.55,1.0,True,False,1.1458854000002248
104,3.0,230.0,34.05,22.74,0.55,1.0,True,True,1.2166913999999451
104,3.0,232.0,54.18,20.18,0.55,1.0,True,False,1.3344621999999615
104,3.0,234.0,23.29,6.39,0.55,1.0,True,False,1.0868869000000814
104,3.0,236.0,28.44,20.44,0.55,1.0,True,True,0.8275970999998208
104,3.0,238.0,9.07,7.51,0.55,1.0,True,False,1.629253399999925
104,3.0,240.0,84.47,21.73,0.55,1.0,True,False,0.7804394999998294
104,3.0,242.0,21.64,9.66,0.55,1.0,True,False,0.7922161999999844
104,3.0,244.0,33.99,16.99,0.55,1.0,True,True,1.4054958000001534
104,3.0,246.0,40.48,11.06,0.55,1.0,True,False,1.299215400000321
104,3.0,248.0,61.42,18.15,0.55,1.0,True,False,0.7920749999998407
104,3.0,250.0,41.84,24.27,0.55,1.0,True,True,0.886556500000097
104,3.0,252.0,40.12,12.07,0.55,1.0,True,False,1.275677000000087
104,3.0,254.0,43.84,22.84,0.55,1.0,True,True,1.3227649000000383
104,3.0,256.0,8.16,6.26,0.55,1.0,True,False,1.877078800000163
104,4.0,225.0,11.34,31.68,1.0,0.55,False,True,0.863065000000006
104,4.0,227.0,14.81,44.61,1.0,0.55,False,True,0.8866501000002245
104,4.0,229.0,7.76,14.75,1.0,0.55,False,False,1.9004525000000283
104,4.0,231.0,8.15,32.42,1.0,0.55,False,True,0.6979434999998375
104,4.0,233.0,14.41,17.97,1.0,0.55,False,False,1.0987513999998555
104,4.0,235.0,14.34,21.34,1.0,0.55,False,False,1.1105569999999716
104,4.0,237.0,9.55,27.39,1.0,0.55,False,True,0.9100217000000156
104,4.0,239.0,9.94,11.72,1.0,0.55,False,False,1.086956299999656
104,4.0,241.0,17.34,20.97,1.0,0.55,False,True,1.5585997999996837
104,4.0,243.0,16.23,28.52,1.0,0.55,False,False,1.7589883999999074
104,4.0,245.0,8.94,17.32,1.0,0.55,False,False,1.2402971999999863
104,4.0,247.0,10.44,32.53,1.0,0.55,False,True,1.0280151000001752
104,4.0,249.0,8.07,15.19,1.0,0.55,False,True,1.3700291000000109
104,4.0,251.0,13.13,22.54,1.0,0.55,False,False,1.01624240000001
104,4.0,253.0,12.69,31.53,1.0,0.55,False,True,1.4407608000001346
104,4.0,255.0,7.12,11.79,1.0,0.55,False,False,1.0752135999996426
104,4.0,226.0,17.88,6.45,0.55,1.0,True,False,0.7804999999998472
104,4.0,228.0,36.42,11.0,0.55,1.0,True,False,0.8514079999999922
104,4.0,230.0,61.32,21.75,0.55,1.0,True,False,1.346446399999877
104,4.0,232.0,5.32,5.22,0.55,1.0,True,True,0.9573366999998144
104,4.0,234.0,43.96,16.56,0.55,1.0,True,False,1.0399380999997447
104,4.0,236.0,34.53,14.01,0.55,1.0,True,False,0.874923299999864
104,4.0,238.0,16.21,5.35,0.55,1.0,True,False,0.9927464000002146
104,4.0,240.0,38.35,13.96,0.55,1.0,True,False,1.0044373000000633
104,4.0,242.0,34.59,11.76,0.55,1.0,True,False,1.6647671999999147
104,4.0,244.0,11.77,8.92,0.55,1.0,True,True,0.8748328000001493
104,4.0,246.0,25.64,8.98,0.55,1.0,True,False,1.476070499999878
104,4.0,248.0,59.32,20.69,0.55,1.0,True,False,1.0398196000001008
104,4.0,250.0,13.21,9.71,0.55,1.0,True,True,1.1341668000000027
104,4.0,252.0,13.27,7.36,0.55,1.0,True,True,2.112814900000103
104,4.0,254.0,25.38,25.08,0.55,1.0,True,True,0.9454926999997042
104,4.0,256.0,46.9,25.73,0.55,1.0,True,True,1.877020899999934
104,5.0,225.0,14.77,10.57,0.55,1.0,True,True,1.1105886000000282
104,5.0,227.0,79.16,24.43,0.55,1.0,True,False,1.0755466999999044
104,5.0,229.0,16.32,14.35,0.55,1.0,True,True,0.9809642999998688
104,5.0,231.0,23.33,10.2,0.55,1.0,True,False,1.122398399999838
104,5.0,233.0,18.78,8.11,0.55,1.0,True,False,1.0870114000003923
104,5.0,235.0,25.06,10.68,0.55,1.0,True,False,1.1459877000002052
104,5.0,237.0,74.98,24.33,0.55,1.0,True,False,1.0280532000001583
104,5.0,239.0,20.24,5.3,0.55,1.0,True,False,0.8866096000001562
104,5.0,241.0,11.54,5.59,0.55,1.0,True,True,1.888794599999983
104,5.0,243.0,13.32,9.06,0.55,1.0,True,True,1.7709492000003593
104,5.0,245.0,39.63,16.3,0.55,1.0,True,False,0.9008033000000067
104,5.0,247.0,70.59,20.73,0.55,1.0,True,False,1.1578417999999149
104,5.0,249.0,48.16,14.22,0.55,1.0,True,False,0.9007077000001118
104,5.0,251.0,30.01,10.83,0.55,1.0,True,False,0.8630780999997114
104,5.0,253.0,16.85,6.81,0.55,1.0,True,False,1.3110537000002296
104,5.0,255.0,39.1,23.01,0.55,1.0,True,True,1.4879065000000082
104,5.0,226.0,11.21,37.63,1.0,0.55,False,True,0.7569855999995525
104,5.0,228.0,5.58,15.96,1.0,0.55,False,True,0.8278230999999323
104,5.0,230.0,16.64,59.69,1.0,0.55,False,True,1.01634120000017
104,5.0,232.0,18.76,22.0,1.0,0.55,False,False,1.4643159000002015
104,5.0,234.0,8.27,19.91,1.0,0.55,False,True,1.2286440000002583
104,5.0,236.0,23.77,61.74,1.0,0.55,False,True,0.8159732000003714
104,5.0,238.0,6.59,7.51,1.0,0.55,False,False,0.9102137999998376
104,5.0,240.0,9.49,25.01,1.0,0.55,False,True,0.9691049000002748
104,5.0,242.0,7.26,14.63,1.0,0.55,False,True,1.9360506000002715
104,5.0,244.0,8.35,13.81,1.0,0.55,False,False,2.1481410000001233
104,5.0,246.0,8.63,30.95,1.0,0.55,False,True,0.8631129000000328
104,5.0,248.0,5.69,14.99,1.0,0.55,False,True,1.028207299999849
104,5.0,250.0,8.03,14.34,1.0,0.55,False,False,1.7944587000001777
104,5.0,252.0,23.88,33.24,1.0,0.55,False,False,1.2993043999999827
104,5.0,254.0,17.14,29.4,1.0,0.55,False,False,1.1696852999998557
104,5.0,256.0,9.52,27.37,1.0,0.55,False,True,0.8513371999997617
104,6.0,225.0,25.78,11.89,0.55,1.0,True,False,0.8750049000000217
104,6.0,227.0,20.46,7.01,0.55,1.0,True,False,0.933818799999699
104,6.0,229.0,47.68,24.08,0.55,1.0,True,True,1.4408667000002424
104,6.0,231.0,39.72,27.0,0.55,1.0,True,True,0.8514193000000887
104,6.0,233.0,9.66,9.07,0.55,1.0,True,True,1.9831328999998732
104,6.0,235.0,21.31,11.72,0.55,1.0,True,False,1.334665600000335
104,6.0,237.0,22.22,8.66,0.55,1.0,True,True,2.289729599999646
104,6.0,239.0,54.07,19.9,0.55,1.0,True,False,1.0281581999997798
104,6.0,241.0,36.08,10.52,0.55,1.0,True,False,1.2521882000000917
104,6.0,243.0,94.82,25.52,0.55,1.0,True,False,0.8750104999999166
104,6.0,245.0,39.88,16.08,0.55,1.0,True,False,1.0990053999998963
104,6.0,247.0,22.57,6.18,0.55,1.0,True,False,1.0163589000003412
104,6.0,249.0,46.46,18.48,0.55,1.0,True,False,0.8160868999998456
104,6.0,251.0,28.49,16.52,0.55,1.0,True,True,0.9575128999999832
104,6.0,253.0,11.06,7.41,0.55,1.0,True,True,1.853522399999747
104,6.0,255.0,17.23,5.13,0.55,1.0,True,False,1.0164764999999534
104,6.0,226.0,12.74,47.7,1.0,0.55,False,True,0.8395657999999457
104,6.0,228.0,5.25,16.99,1.0,0.55,False,True,0.7688287999999375
104,6.0,230.0,15.25,56.29,1.0,0.55,False,True,0.6981999999998152
104,6.0,232.0,7.86,11.11,1.0,0.55,False,False,1.0046080000001891
104,6.0,234.0,24.42,56.37,1.0,0.55,False,True,0.7924395000000004
104,6.0,236.0,9.28,12.4,1.0,0.55,False,False,1.0045651000000362
104,6.0,238.0,25.63,89.19,1.0,0.55,False,True,1.0399376000000302
104,6.0,240.0,23.12,37.34,1.0,0.55,False,False,0.8631857000000309
104,6.0,242.0,12.62,42.16,1.0,0.55,False,True,0.9573762999998509
104,6.0,244.0,13.43,26.41,1.0,0.55,False,True,2.089514700000109
104,6.0,246.0,9.58,32.03,1.0,0.55,False,True,0.7099870000001829
104,6.0,248.0,6.42,23.24,1.0,0.55,False,True,0.6745550999999068
104,6.0,250.0,23.14,59.08,1.0,0.55,False,True,0.8396628999998939
104,6.0,252.0,9.69,28.75,1.0,0.55,False,True,0.8867611999999099
104,6.0,254.0,23.72,81.5,1.0,0.55,False,True,0.8749769999999444
104,6.0,256.0,6.81,9.27,1.0,0.55,False,False,1.4409743999999591
104,7.0,225.0,27.58,60.65,1.0,0.55,False,True,1.9007322000002205
104,7.0,227.0,6.29,23.49,1.0,0.55,False,True,0.9809174000001804
104,7.0,229.0,25.51,99.81,1.0,0.55,False,True,0.9455963000000338
104,7.0,231.0,15.95,60.66,1.0,0.55,False,True,0.8161717000002682
104,7.0,233.0,19.17,32.8,1.0,0.55,False,False,0.9928061999999044
104,7.0,235.0,8.53,32.1,1.0,0.55,False,True,0.8633624999997664
104,7.0,237.0,19.35,38.94,1.0,0.55,False,True,1.0282877999998163
104,7.0,239.0,24.9,98.6,1.0,0.55,False,True,0.8397257999999965
104,7.0,241.0,8.01,11.26,1.0,0.55,False,False,0.9934383999998316
104,7.0,243.0,12.29,27.47,1.0,0.55,False,True,0.7924984000001132
104,7.0,245.0,8.08,13.05,1.0,0.55,False,False,0.9456640999997036
104,7.0,247.0,11.08,14.66,1.0,0.55,False,False,1.6767500000000837
104,7.0,249.0,18.22,63.37,1.0,0.55,False,True,0.9339506999999684
104,7.0,251.0,9.03,17.26,1.0,0.55,False,True,1.7002720999998928
104,7.0,253.0,5.72,11.09,1.0,0.55,False,False,1.099048999999923
104,7.0,255.0,27.78,47.69,1.0,0.55,False,False,1.7828197999997428
104,7.0,226.0,31.21,21.49,0.55,1.0,True,True,0.7806949999999233
104,7.0,228.0,29.16,13.53,0.55,1.0,True,True,1.995104199999787
104,7.0,230.0,24.18,13.24,0.55,1.0,True,True,1.0636922000003324
104,7.0,232.0,78.62,20.2,0.55,1.0,True,False,0.9575282000000698
104,7.0,234.0,23.24,7.0,0.55,1.0,True,False,1.134484499999871
104,7.0,236.0,48.79,14.55,0.55,1.0,True,False,1.0636411999998927
104,7.0,238.0,46.11,12.16,0.55,1.0,True,False,0.910299699999996
104,7.0,240.0,7.72,7.19,0.55,1.0,True,True,0.9810575000001336
104,7.0,242.0,8.29,6.04,0.55,1.0,True,True,1.2640863000001443
104,7.0,244.0,65.86,20.19,0.55,1.0,True,False,1.6177757999998903
104,7.0,246.0,17.4,14.77,0.55,1.0,True,True,0.8278907000003528
104,7.0,248.0,27.68,11.49,0.55,1.0,True,False,0.9103210000002946
104,7.0,250.0,19.38,5.66,0.55,1.0,True,False,0.8396772999999484
104,7.0,252.0,54.1,17.17,0.55,1.0,True,False,1.2758735000002162
104,7.0,254.0,14.61,5.36,0.55,1.0,True,False,1.3230241999999637
104,7.0,256.0,91.42,27.91,0.55,1.0,True,False,1.1697770000000671
104,8.0,225.0,7.24,26.92,1.0,0.55,False,True,0.769292299999961
104,8.0,227.0,15.41,58.47,1.0,0.55,False,True,0.8162069999998494
104,8.0,229.0,5.55,13.01,1.0,0.55,False,True,0.8515801999997166
104,8.0,231.0,14.71,30.71,1.0,0.55,False,True,0.8280108000003565
104,8.0,233.0,9.37,13.65,1.0,0.55,False,False,0.8633759999997892
104,8.0,235.0,9.06,22.82,1.0,0.55,False,True,0.9575138000000152
104,8.0,237.0,15.01,49.31,1.0,0.55,False,True,0.8161457999999584
104,8.0,239.0,12.73,13.09,1.0,0.55,False,False,1.051857999999811
104,8.0,241.0,5.4,15.88,1.0,0.55,False,True,1.028280999999879
104,8.0,243.0,5.5,8.39,1.0,0.55,False,False,1.264177600000039
104,8.0,245.0,5.45,8.29,1.0,0.55,False,False,0.945824100000209
104,8.0,247.0,9.53,30.97,1.0,0.55,False,True,1.075438899999881
104,8.0,249.0,16.15,26.45,1.0,0.55,False,False,1.2406098999999813
104,8.0,251.0,12.47,31.3,1.0,0.55,False,True,0.9929902000003494
104,8.0,253.0,6.84,9.49,1.0,0.55,False,True,1.9126521000002867
104,8.0,255.0,6.37,9.43,1.0,0.55,False,False,1.1698875999995837
104,8.0,226.0,26.09,17.59,0.55,1.0,True,True,0.7926706000002923
104,8.0,228.0,48.86,20.44,0.55,1.0,True,False,1.6768442999996296
104,8.0,230.0,34.14,9.95,0.55,1.0,True,False,1.0165160999999898
104,8.0,232.0,17.57,6.9,0.55,1.0,True,False,0.9010540000003856
104,8.0,234.0,18.21,11.39,0.55,1.0,True,True,1.9951019000000088
104,8.0,236.0,8.96,7.02,0.55,1.0,True,True,0.8751717999998618
104,8.0,238.0,79.62,21.59,0.55,1.0,True,False,0.9929188999999496
104,8.0,240.0,9.46,5.84,0.55,1.0,True,True,1.1226542999997946
104,8.0,242.0,20.33,5.34,0.55,1.0,True,False,1.3584765000000516
104,8.0,244.0,28.22,7.96,0.55,1.0,True,False,0.9457920000004378
104,8.0,246.0,19.83,12.41,0.55,1.0,True,True,0.8045983000001797
104,8.0,248.0,69.8,27.32,0.55,1.0,True,False,1.1581445000001622
104,8.0,250.0,26.59,11.61,0.55,1.0,True,False,1.1463352999999188
104,8.0,252.0,20.25,5.37,0.55,1.0,True,False,1.0756094999997003
104,8.0,254.0,37.56,22.02,0.55,1.0,True,True,1.1108651999993526
104,8.0,256.0,19.65,15.16,0.55,1.0,True,True,0.7925893000001452
106,1.0,225.0,24.84,10.37,0.55,1.0,True,False,2.4543154000000413
106,1.0,227.0,43.87,11.63,0.55,1.0,True,False,1.1575551999999334
106,1.0,229.0,24.52,12.97,0.55,1.0,True,True,1.5819813000000522
106,1.0,231.0,59.14,21.06,0.55,1.0,True,False,1.0985682000000452
106,1.0,233.0,17.01,15.0,0.55,1.0,True,True,0.9453128000000106
106,1.0,235.0,24.16,6.25,0.55,1.0,True,True,0.721370300000217
106,1.0,237.0,14.83,11.21,0.55,1.0,True,True,1.7235121999999592
106,1.0,239.0,26.22,13.55,0.55,1.0,True,True,1.322525300000052
106,1.0,241.0,17.68,10.18,0.55,1.0,True,True,0.8392118000001574
106,1.0,243.0,46.43,17.52,0.55,1.0,True,False,0.8864387999999508
106,1.0,245.0,36.38,22.91,0.55,1.0,True,False,0.9098970000000008
106,1.0,247.0,33.63,9.01,0.55,1.0,True,False,1.0985487999996622
106,1.0,249.0,55.4,26.71,0.55,1.0,True,False,0.8274275999997371
106,1.0,251.0,29.84,11.11,0.55,1.0,True,False,1.0985539000002973
106,1.0,253.0,10.26,5.39,0.55,1.0,True,True,0.8157075999997687
106,1.0,255.0,33.9,9.2,0.55,1.0,True,False,1.110365400000319
106,1.0,226.0,5.46,20.05,1.0,0.55,False,True,1.086776899999677
106,1.0,228.0,11.69,20.5,1.0,0.55,False,True,1.5466065999999046
106,1.0,230.0,25.16,95.69,1.0,0.55,False,True,0.8038773000002948
106,1.0,232.0,21.26,74.81,1.0,0.55,False,True,0.8629165000002104
106,1.0,234.0,24.99,46.73,1.0,0.55,False,True,0.8510274999998728
106,1.0,236.0,8.13,18.37,1.0,0.55,False,True,0.9002812999997332
106,1.0,238.0,26.41,101.46,1.0,0.55,False,True,0.7214132000003701
106,1.0,240.0,13.27,28.49,1.0,0.55,False,True,0.8746533000003183
106,1.0,242.0,5.91,16.07,1.0,0.55,False,True,0.733176100000037
106,1.0,244.0,7.26,10.06,1.0,0.55,False,True,0.8746206000000711
106,1.0,246.0,27.8,102.98,1.0,0.55,False,True,0.6270746999998664
106,1.0,248.0,23.51,37.1,1.0,0.55,False,True,1.027913400000216
106,1.0,250.0,13.16,23.36,1.0,0.55,False,True,0.7449443000000429
106,1.0,252.0,17.75,41.84,1.0,0.55,False,True,1.0160807000002023
106,1.0,254.0,15.36,36.45,1.0,0.55,False,True,0.7685228999998799
106,1.0,256.0,19.52,41.6,1.0,0.55,False,True,0.674227499999688
106,2.0,225.0,36.21,15.09,0.55,1.0,True,False,1.0750327000000652
106,2.0,227.0,44.51,12.46,0.55,1.0,True,False,0.9807198999997128
106,2.0,229.0,80.63,27.3,0.55,1.0,True,False,1.3226338999998006
106,2.0,231.0,75.22,23.43,0.55,1.0,True,False,0.7685666999996101
106,2.0,233.0,28.27,18.03,0.55,1.0,True,False,0.8510748000003332
106,2.0,235.0,12.37,7.89,0.55,1.0,True,True,0.733160300000236
106,2.0,237.0,33.6,18.69,0.55,1.0,True,False,0.6742198999995708
106,2.0,239.0,18.91,6.08,0.55,1.0,True,True,0.862862099999802
106,2.0,241.0,19.8,5.46,0.55,1.0,True,False,1.0514753000002202
106,2.0,243.0,72.61,21.31,0.55,1.0,True,False,0.9335375000000568
106,2.0,245.0,37.07,11.65,0.55,1.0,True,False,0.9807329999998728
106,2.0,247.0,45.61,14.55,0.55,1.0,True,False,1.027867400000105
106,2.0,249.0,23.33,9.63,0.55,1.0,True,False,0.803968299999724
106,2.0,251.0,62.7,25.31,0.55,1.0,True,False,0.8864663999997902
106,2.0,253.0,5.96,5.1,0.55,1.0,True,True,1.2401700000000346
106,2.0,255.0,26.45,10.35,0.55,1.0,True,False,1.0043179999997849
106,2.0,226.0,8.49,30.8,1.0,0.55,False,True,0.8394032000001062
106,2.0,228.0,5.47,14.57,1.0,0.55,False,True,0.6624656000003597
106,2.0,230.0,5.49,6.1,1.0,0.55,False,False,1.4877706000002036
106,2.0,232.0,12.07,12.65,1.0,0.55,False,False,1.2519218000002184
106,2.0,234.0,5.91,21.62,1.0,0.55,False,True,1.0986680999999408
106,2.0,236.0,16.53,64.6,1.0,0.55,False,True,0.8275460999998359
106,2.0,238.0,8.71,21.72,1.0,0.55,False,True,1.134089600000152
106,2.0,240.0,11.12,19.65,1.0,0.55,False,True,1.2755246000001534
106,2.0,242.0,8.19,17.8,1.0,0.55,False,True,1.051491299999725
106,2.0,244.0,6.34,18.92,1.0,0.55,False,True,0.9004536999996162
106,2.0,246.0,6.73,25.01,1.0,0.55,False,True,0.8511226000000534
106,2.0,248.0,26.81,92.11,1.0,0.55,False,True,0.7099139000001742
106,2.0,250.0,17.04,65.22,1.0,0.55,False,True,0.6978939999999056
106,2.0,252.0,5.55,7.31,1.0,0.55,False,False,1.33454490000031
106,2.0,254.0,10.3,34.35,1.0,0.55,False,True,0.8511797999999544
106,2.0,256.0,5.01,17.3,1.0,0.55,False,True,0.8865015999999741
106,3.0,225.0,9.03,5.86,0.55,1.0,True,True,1.4405879999999345
106,3.0,227.0,14.71,8.57,0.55,1.0,True,True,0.8865160999998807
106,3.0,229.0,20.52,13.31,0.55,1.0,True,True,0.9926338999998734
106,3.0,231.0,11.43,6.58,0.55,1.0,True,True,1.900538100000176
106,3.0,233.0,40.83,23.47,0.55,1.0,True,True,0.9004514000002928
106,3.0,235.0,77.86,21.56,0.55,1.0,True,False,0.8039816999998948
106,3.0,237.0,37.86,10.81,0.55,1.0,True,False,1.181471800000054
106,3.0,239.0,21.4,7.02,0.55,1.0,True,False,1.087019699999928
106,3.0,241.0,23.46,6.83,0.55,1.0,True,False,0.9099697999999988
106,3.0,243.0,53.54,13.94,0.55,1.0,True,False,0.7568492999998853
106,3.0,245.0,78.22,25.28,0.55,1.0,True,False,0.7214953000002424
106,3.0,247.0,8.28,6.05,0.55,1.0,True,True,1.228465099999994
106,3.0,249.0,25.02,13.75,0.55,1.0,True,False,1.4996549000002233
106,3.0,251.0,6.86,6.17,0.55,1.0,True,True,1.0515972999996848
106,3.0,253.0,13.41,6.63,0.55,1.0,True,True,1.1576168999999936
106,3.0,255.0,43.67,23.26,0.55,1.0,True,False,1.8061117000002016
106,3.0,226.0,5.35,19.03,1.0,0.55,False,True,1.4523940999997649
106,3.0,228.0,6.44,16.8,1.0,0.55,False,True,1.0044192000000294
106,3.0,230.0,17.4,41.93,1.0,0.55,False,True,0.8865566999998009
106,3.0,232.0,6.31,12.97,1.0,0.55,False,False,1.240233900000021
106,3.0,234.0,6.85,21.74,1.0,0.55,False,True,1.1694634000000406
106,3.0,236.0,18.4,65.89,1.0,0.55,False,True,0.8040335999999115
106,3.0,238.0,24.2,66.54,1.0,0.55,False,True,1.0751694999999015
106,3.0,240.0,12.06,26.83,1.0,0.55,False,True,0.6979154999999082
106,3.0,242.0,11.68,42.04,1.0,0.55,False,True,0.6978956000002654
106,3.0,244.0,27.22,84.62,1.0,0.55,False,True,0.8748485999999502
106,3.0,246.0,5.84,7.51,1.0,0.55,False,False,1.511381899999833
106,3.0,248.0,7.37,22.83,1.0,0.55,False,True,0.8393946000001051
106,3.0,250.0,13.83,37.22,1.0,0.55,False,True,1.605706300000293
106,3.0,252.0,23.12,52.94,1.0,0.55,False,True,0.7568694999999934
106,3.0,254.0,15.21,45.89,1.0,0.55,False,True,1.0280008999998245
106,3.0,256.0,11.47,23.88,1.0,0.55,False,True,1.110558299999866
106,4.0,225.0,13.04,38.42,1.0,0.55,False,True,0.8158579999999347
106,4.0,227.0,8.22,11.66,1.0,0.55,False,False,1.0280438999998296
106,4.0,229.0,5.4,9.66,1.0,0.55,False,False,0.9689898000001448
106,4.0,231.0,6.79,20.98,1.0,0.55,False,True,1.0751560000003335
106,4.0,233.0,7.37,26.07,1.0,0.55,False,True,0.7922945000000254
106,4.0,235.0,5.81,18.05,1.0,0.55,False,True,1.252075600000353
106,4.0,237.0,12.41,33.37,1.0,0.55,False,True,0.7097521000000597
106,4.0,239.0,12.95,22.43,1.0,0.55,False,False,1.959487899999658
106,4.0,241.0,20.6,73.84,1.0,0.55,False,True,0.7097923999999693
106,4.0,243.0,5.54,13.5,1.0,0.55,False,True,1.2873780999998417
106,4.0,245.0,14.79,20.63,1.0,0.55,False,False,1.2756549999999152
106,4.0,247.0,22.01,63.09,1.0,0.55,False,True,0.804064599999947
106,4.0,249.0,26.9,37.45,1.0,0.55,False,False,1.1105585000000249
106,4.0,251.0,8.21,16.33,1.0,0.55,False,False,1.9476764000000912
106,4.0,253.0,5.25,13.47,1.0,0.55,False,True,1.8061804999997548
106,4.0,255.0,5.03,9.78,1.0,0.55,False,False,1.346625799999856
106,4.0,226.0,32.19,9.36,0.55,1.0,True,False,1.004547999999886
106,4.0,228.0,16.87,9.19,0.55,1.0,True,True,0.8630588999999418
106,4.0,230.0,56.92,16.4,0.55,1.0,True,False,0.7333948000000419
106,4.0,232.0,34.32,11.19,0.55,1.0,True,False,0.945788900000025
106,4.0,234.0,23.18,11.05,0.55,1.0,True,False,2.053739299999961
106,4.0,236.0,22.65,6.91,0.55,1.0,True,False,1.0752308999999514
106,4.0,238.0,18.68,10.23,0.55,1.0,True,True,1.558635200000026
106,4.0,240.0,11.32,5.02,0.55,1.0,True,False,2.2895300000000134
106,4.0,242.0,23.63,13.49,0.55,1.0,True,True,1.3463832000002185
106,4.0,244.0,11.2,6.77,0.55,1.0,True,True,0.7805929000001015
106,4.0,246.0,44.69,19.93,0.55,1.0,True,False,0.7687731999999414
106,4.0,248.0,22.48,18.37,0.55,1.0,True,True,0.9454690000002302
106,4.0,250.0,40.96,24.22,0.55,1.0,True,True,0.8866680000000997
106,4.0,252.0,59.27,18.39,0.55,1.0,True,False,0.7098203999998987
106,4.0,254.0,24.81,7.44,0.55,1.0,True,False,1.028062200000022
106,4.0,256.0,41.04,17.48,0.55,1.0,True,False,1.134176099999877
106,5.0,225.0,9.7,26.24,1.0,0.55,False,True,0.6980145000002267
106,5.0,227.0,9.63,33.03,1.0,0.55,False,True,0.7098108000000138
106,5.0,229.0,25.48,78.21,1.0,0.55,False,True,0.6626211000002513
106,5.0,231.0,17.79,43.57,1.0,0.55,False,True,0.8512903000000733
106,5.0,233.0,26.28,83.45,1.0,0.55,False,True,0.6980207000001428
106,5.0,235.0,19.05,39.46,1.0,0.55,False,True,1.2285218000001803
106,5.0,237.0,18.46,26.72,1.0,0.55,False,False,1.098919300000034
106,5.0,239.0,6.66,14.71,1.0,0.55,False,True,2.148153999999977
106,5.0,241.0,10.12,16.13,1.0,0.55,False,False,1.5824594999999135
106,5.0,243.0,6.94,18.29,1.0,0.55,False,True,0.6862941999997929
106,5.0,245.0,8.43,27.68,1.0,0.55,False,True,1.28784319999977
106,5.0,247.0,10.4,11.17,1.0,0.55,False,False,0.9691357000001516
106,5.0,249.0,6.66,11.63,1.0,0.55,False,False,2.148182899999938
106,5.0,251.0,20.66,53.25,1.0,0.55,False,True,0.8748678000001746
106,5.0,253.0,15.96,50.04,1.0,0.55,False,True,0.8395969999996851
106,5.0,255.0,13.86,28.24,1.0,0.55,False,True,1.59398740000006
106,5.0,226.0,31.51,8.93,0.55,1.0,True,False,0.6980884999998125
106,5.0,228.0,61.67,18.87,0.55,1.0,True,False,0.6745053999998163
106,5.0,230.0,18.86,8.84,0.55,1.0,True,False,0.9809685999998692
106,5.0,232.0,39.31,15.77,0.55,1.0,True,False,1.028204900000219
106,5.0,234.0,13.34,10.24,0.55,1.0,True,False,1.523373300000003
106,5.0,236.0,15.12,8.03,0.55,1.0,True,True,1.14600849999988
106,5.0,238.0,15.59,15.58,0.55,1.0,True,True,1.3938685000002806
106,5.0,240.0,32.83,13.69,0.55,1.0,True,False,1.0280911999998352
106,5.0,242.0,78.29,22.22,0.55,1.0,True,False,0.5801651000001584
106,5.0,244.0,15.12,12.1,0.55,1.0,True,True,0.7216884000004029
106,5.0,246.0,7.8,5.71,0.55,1.0,True,True,0.6627668000000995
106,5.0,248.0,51.48,16.54,0.55,1.0,True,False,0.7570166000000427
106,5.0,250.0,23.86,22.79,0.55,1.0,True,True,0.851328900000226
106,5.0,252.0,28.49,7.16,0.55,1.0,True,False,0.8277769999999691
106,5.0,254.0,27.09,6.87,0.55,1.0,True,False,0.8395672000001468
106,5.0,256.0,81.13,22.7,0.55,1.0,True,False,0.94557420000001
106,6.0,225.0,12.43,36.93,1.0,0.55,False,True,0.6155767000000196
106,6.0,227.0,10.08,18.19,1.0,0.55,False,True,1.004535500000202
106,6.0,229.0,23.53,44.75,1.0,0.55,False,True,0.7216640999999981
106,6.0,231.0,16.43,61.52,1.0,0.55,False,True,0.7806354999997893
106,6.0,233.0,18.99,28.56,1.0,0.55,False,True,1.476184699999976
106,6.0,235.0,10.13,29.13,1.0,0.55,False,True,1.0047457000000577
106,6.0,237.0,9.42,13.0,1.0,0.55,False,False,1.3346982000002754
106,6.0,239.0,8.55,34.03,1.0,0.55,False,True,0.992790799999966
106,6.0,241.0,14.24,27.12,1.0,0.55,False,True,0.686306500000228
106,6.0,243.0,5.52,8.48,1.0,0.55,False,True,0.8749253000000863
106,6.0,245.0,13.32,13.51,1.0,0.55,False,False,1.0753176999996867
106,6.0,247.0,5.61,9.76,1.0,0.55,False,True,1.759132000000136
106,6.0,249.0,16.47,24.37,1.0,0.55,False,False,1.61766549999993
106,6.0,251.0,18.19,18.53,1.0,0.55,False,False,1.039982499999951
106,6.0,253.0,9.05,22.89,1.0,0.55,False,True,0.9810059999999794
106,6.0,255.0,25.96,72.37,1.0,0.55,False,True,0.7688539000000674
106,6.0,226.0,12.79,6.51,0.55,1.0,True,True,0.886804100000063
106,6.0,228.0,14.43,8.21,0.55,1.0,True,True,0.698159300000043
106,6.0,230.0,95.32,26.75,0.55,1.0,True,False,0.6273658000000069
106,6.0,232.0,25.59,7.78,0.55,1.0,True,False,0.8514221000000362
106,6.0,234.0,16.76,12.01,0.55,1.0,True,True,1.1696896000003107
106,6.0,236.0,29.07,8.47,0.55,1.0,True,False,0.6391828999999234
106,6.0,238.0,35.26,11.68,0.55,1.0,True,False,0.6863238999999339
106,6.0,240.0,24.35,7.7,0.55,1.0,True,False,0.9008757000001424
106,6.0,242.0,45.27,14.19,0.55,1.0,True,False,0.6746164000001045
106,6.0,244.0,24.49,6.66,0.55,1.0,True,False,0.6273988000002646
106,6.0,246.0,13.25,6.04,0.55,1.0,True,False,1.216895800000202
106,6.0,248.0,87.74,24.84,0.55,1.0,True,False,0.6510383999998339
106,6.0,250.0,15.11,7.79,0.55,1.0,True,True,1.2758151000002729
106,6.0,252.0,59.05,17.73,0.55,1.0,True,False,0.7217289000000164
106,6.0,254.0,80.29,20.73,0.55,1.0,True,False,0.6274176000001717
106,6.0,256.0,25.5,11.4,0.55,1.0,True,False,0.900916000000052
106,7.0,225.0,25.01,7.29,0.55,1.0,True,False,0.7571235000000343
106,7.0,227.0,81.25,22.26,0.55,1.0,True,False,0.6628129999999146
106,7.0,229.0,21.65,14.35,0.55,1.0,True,True,0.9102174999998168
106,7.0,231.0,25.33,9.97,0.55,1.0,True,False,0.9928162000001066
106,7.0,233.0,48.94,18.07,0.55,1.0,True,False,0.7570968999998513
106,7.0,235.0,52.32,22.99,0.55,1.0,True,False,0.8632984000000761
106,7.0,237.0,12.33,12.08,0.55,1.0,True,True,1.4055317999996078
106,7.0,239.0,36.6,17.33,0.55,1.0,True,False,1.2994165999998586
106,7.0,241.0,43.74,16.36,0.55,1.0,True,False,0.945603100000426
106,7.0,243.0,64.75,27.35,0.55,1.0,True,False,0.8278641000001699
106,7.0,245.0,23.21,8.53,0.55,1.0,True,False,0.8160760000000664
106,7.0,247.0,32.47,14.07,0.55,1.0,True,False,0.792507900000146
106,7.0,249.0,25.26,8.46,0.55,1.0,True,False,0.7689190000000963
106,7.0,251.0,24.49,13.99,0.55,1.0,True,True,1.334791000000223
106,7.0,253.0,13.61,6.15,0.55,1.0,True,True,0.7217911000002459
106,7.0,255.0,53.68,26.12,0.55,1.0,True,False,0.7217624999998407
106,7.0,226.0,6.64,14.33,1.0,0.55,False,True,0.8750503000001117
106,7.0,228.0,26.2,27.56,1.0,0.55,False,False,1.0164774999998372
106,7.0,230.0,27.05,49.42,1.0,0.55,False,False,1.6411848000002465
106,7.0,232.0,10.12,26.25,1.0,0.55,False,True,1.346680600000127
106,7.0,234.0,15.78,58.0,1.0,0.55,False,True,1.1698206000000937
106,7.0,236.0,7.42,21.81,1.0,0.55,False,True,0.615681400000085
106,7.0,238.0,19.65,70.25,1.0,0.55,False,True,0.6747040000000197
106,7.0,240.0,17.69,64.53,1.0,0.55,False,True,0.9811110000000554
106,7.0,242.0,6.28,19.61,1.0,0.55,False,True,1.3701901000004
106,7.0,244.0,7.13,19.77,1.0,0.55,False,True,0.8632659999993848
106,7.0,246.0,10.81,36.42,1.0,0.55,False,True,0.9339417999999567
106,7.0,248.0,12.6,21.07,1.0,0.55,False,False,1.5117295999998532
106,7.0,250.0,6.64,7.55,1.0,0.55,False,False,0.8750653000006423
106,7.0,252.0,12.37,37.96,1.0,0.55,False,True,0.8043960999993942
106,7.0,254.0,12.99,48.3,1.0,0.55,False,True,0.6746295000002647
106,7.0,256.0,17.13,27.01,1.0,0.55,False,False,2.089387799999713
106,8.0,225.0,8.23,18.46,1.0,0.55,False,True,0.8632864999999583
106,8.0,227.0,23.01,24.69,1.0,0.55,False,False,0.7925794000002497
106,8.0,229.0,11.59,39.77,1.0,0.55,False,True,0.8161333999996714
106,8.0,231.0,10.37,35.38,1.0,0.55,False,True,0.9011808000004748
106,8.0,233.0,7.0,22.61,1.0,0.55,False,True,0.780792599999586
106,8.0,235.0,6.32,7.04,1.0,0.55,False,False,1.0282674999998562
106,8.0,237.0,12.37,40.29,1.0,0.55,False,True,0.9928911000006336
106,8.0,239.0,12.18,13.51,1.0,0.55,False,False,0.8043397999999797
106,8.0,241.0,19.69,36.17,1.0,0.55,False,True,0.8868719000001875
106,8.0,243.0,18.9,49.26,1.0,0.55,False,True,0.7454098000007434
106,8.0,245.0,17.69,57.55,1.0,0.55,False,True,0.7454422999999224
106,8.0,247.0,14.88,17.02,1.0,0.55,False,False,1.2407976000004055
106,8.0,249.0,11.25,14.1,1.0,0.55,False,False,0.9929785000003905
106,8.0,251.0,6.16,18.88,1.0,0.55,False,True,0.6746974999996382
106,8.0,253.0,12.92,49.62,1.0,0.55,False,True,0.792608100000507
106,8.0,255.0,20.38,24.29,1.0,0.55,False,False,0.9010523000006287
106,8.0,226.0,40.77,10.7,0.55,1.0,True,False,0.7100563999993028
106,8.0,228.0,50.89,14.26,0.55,1.0,True,False,0.7218659000000116
106,8.0,230.0,22.84,16.56,0.55,1.0,True,True,0.7218591000000742
106,8.0,232.0,45.38,12.28,0.55,1.0,True,False,0.6275083999998969
106,8.0,234.0,19.23,9.37,0.55,1.0,True,False,1.2995774999999412
106,8.0,236.0,21.2,5.74,0.55,1.0,True,False,0.8279705000004469
106,8.0,238.0,50.9,25.61,0.55,1.0,True,False,0.9693496999998388
106,8.0,240.0,9.88,5.08,0.55,1.0,True,True,0.6865195000000313
106,8.0,242.0,73.88,27.72,0.55,1.0,True,False,0.7100773000001936
106,8.0,244.0,91.31,27.91,0.55,1.0,True,False,0.7454905000004146
106,8.0,246.0,10.51,6.22,0.55,1.0,True,True,0.6511190000001079
106,8.0,248.0,23.08,16.59,0.55,1.0,True,True,1.0401089999995747
106,8.0,250.0,28.05,8.72,0.55,1.0,True,False,0.7572479999998905
106,8.0,252.0,17.05,5.63,0.55,1.0,True,False,0.7808157999998002
106,8.0,254.0,17.28,13.41,0.55,1.0,True,True,0.7336406999993415
106,8.0,256.0,23.38,8.85,0.55,1.0,True,False,0.757227299999613
122,1.0,225.0,6.56,9.24,1.0,0.55,False,False,1.822120199999972
122,1.0,227.0,10.17,27.15,1.0,0.55,False,True,1.3579399000000194
122,1.0,229.0,16.7,23.92,1.0,0.55,False,False,1.2874193999998624
122,1.0,231.0,14.33,20.2,1.0,0.55,False,False,1.4287077999999838
122,1.0,233.0,26.3,51.63,1.0,0.55,False,True,1.3227196000000276
122,1.0,235.0,18.48,35.75,1.0,0.55,False,False,1.369896899999958
122,1.0,237.0,13.33,41.53,1.0,0.55,False,True,0.9217200999999022
122,1.0,239.0,14.04,50.3,1.0,0.55,False,True,1.251799500000061
122,1.0,241.0,9.88,24.03,1.0,0.55,False,True,1.0278653000000304
122,1.0,243.0,25.94,56.9,1.0,0.55,False,False,2.7256058000000394
122,1.0,245.0,7.19,17.43,1.0,0.55,False,True,0.912043199999971
122,1.0,247.0,5.32,10.72,1.0,0.55,False,True,1.982697700000017
122,1.0,249.0,6.25,6.84,1.0,0.55,False,False,0.9924573999999212
122,1.0,251.0,6.75,22.13,1.0,0.55,False,True,0.9336505000001124
122,1.0,253.0,27.33,48.8,1.0,0.55,False,False,1.0867542000000867
122,1.0,255.0,11.54,42.39,1.0,0.55,False,True,0.9924238999999488
122,1.0,226.0,19.84,17.29,0.55,1.0,True,True,1.6409161000001404
122,1.0,228.0,23.18,9.41,0.55,1.0,True,False,1.947419299999865
122,1.0,230.0,68.75,22.77,0.55,1.0,True,False,1.0160474000001614
122,1.0,232.0,29.4,11.26,0.55,1.0,True,False,1.5938655999998446
122,1.0,234.0,53.64,18.64,0.55,1.0,True,False,1.912091299999929
122,1.0,236.0,53.04,27.13,0.55,1.0,True,True,0.7686266999999134
122,1.0,238.0,22.14,8.64,0.55,1.0,True,False,1.8766655999997963
122,1.0,240.0,57.41,16.39,0.55,1.0,True,False,0.9335035999999944
122,1.0,242.0,26.3,16.37,0.55,1.0,True,True,1.3461705000001984
122,1.0,244.0,10.92,9.77,0.55,1.0,True,True,1.0278298999999151
122,1.0,246.0,9.53,8.36,0.55,1.0,True,True,1.133966399999963
