subject,session,stimulation_condition,run,trial_nr,n1,n2,p1,p2,choice,rt
1,1,baseline,1,1,28.0,86.0,1.0,0.55,2.0,1.5687717999999222
1,1,baseline,1,2,7.0,21.0,1.0,0.55,2.0,1.1916524999997051
1,1,baseline,1,3,7.0,21.0,1.0,0.55,2.0,0.7473368000000846
1,1,baseline,1,4,10.0,24.0,1.0,0.55,1.0,1.6115740000000471
1,1,baseline,1,5,20.0,44.0,1.0,0.55,2.0,1.318757199999709
1,1,baseline,1,6,10.0,27.0,1.0,0.55,1.0,1.6590519999999458
1,1,baseline,1,7,28.0,69.0,1.0,0.55,2.0,1.5515305999997508
1,1,baseline,1,8,10.0,19.0,1.0,0.55,1.0,1.1543341999999797
1,1,baseline,1,9,20.0,39.0,1.0,0.55,1.0,1.038518099999692
1,1,baseline,1,10,14.0,24.0,1.0,0.55,1.0,0.9046868999998878
1,1,baseline,1,11,49.0,28.0,0.55,1.0,2.0,0.6029906999997365
1,1,baseline,1,12,17.0,7.0,0.55,1.0,1.0,0.950464499999697
1,1,baseline,1,13,13.0,7.0,0.55,1.0,1.0,1.6617621000000327
1,1,baseline,1,14,49.0,28.0,0.55,1.0,2.0,1.2322877000001142
1,1,baseline,1,15,31.0,14.0,0.55,1.0,1.0,1.4277822999997625
1,1,baseline,1,16,44.0,20.0,0.55,1.0,1.0,1.292725799999971
1,1,baseline,1,17,19.0,7.0,0.55,1.0,1.0,1.1388455000001159
1,1,baseline,1,18,35.0,20.0,0.55,1.0,2.0,0.6442594000000099
1,1,baseline,1,19,12.0,7.0,0.55,1.0,2.0,0.8527466000000459
1,1,baseline,1,20,21.0,7.0,0.55,1.0,1.0,1.329657700000098
1,1,baseline,2,21,69.0,28.0,0.55,1.0,1.0,1.2158414999998968
1,1,baseline,2,22,86.0,28.0,0.55,1.0,1.0,0.9160643000000164
1,1,baseline,2,23,27.0,10.0,0.55,1.0,1.0,1.4254554999997708
1,1,baseline,2,24,30.0,10.0,0.55,1.0,1.0,1.4537962999997802
1,1,baseline,2,25,86.0,28.0,0.55,1.0,1.0,1.052283500000172
1,1,baseline,2,26,22.0,10.0,0.55,1.0,2.0,1.3585635999998118
1,1,baseline,2,27,19.0,10.0,0.55,1.0,2.0,1.780603700000043
1,1,baseline,2,28,34.0,14.0,0.55,1.0,1.0,1.0898019999999633
1,1,baseline,2,29,39.0,20.0,0.55,1.0,1.0,1.2849403999998685
1,1,baseline,2,30,30.0,10.0,0.55,1.0,1.0,0.9399378999996486
1,1,baseline,2,31,7.0,17.0,1.0,0.55,1.0,1.4888140000003034
1,1,baseline,2,32,14.0,31.0,1.0,0.55,1.0,1.1858028999999988
1,1,baseline,2,33,14.0,38.0,1.0,0.55,2.0,0.9369449999999233
1,1,baseline,2,34,7.0,12.0,1.0,0.55,1.0,1.164571799999976
1,1,baseline,2,35,7.0,15.0,1.0,0.55,2.0,1.3492482000001473
1,1,baseline,2,36,14.0,27.0,1.0,0.55,2.0,0.9459090000000003
1,1,baseline,2,37,10.0,17.0,1.0,0.55,1.0,1.0829396000003726
1,1,baseline,2,38,28.0,55.0,1.0,0.55,1.0,1.6609642000003078
1,1,baseline,2,39,28.0,49.0,1.0,0.55,1.0,0.9803790000000845
1,1,baseline,2,40,28.0,62.0,1.0,0.55,2.0,1.4971465999997235
1,1,baseline,3,41,7.0,15.0,1.0,0.55,2.0,1.2567877000001317
1,1,baseline,3,42,14.0,31.0,1.0,0.55,1.0,1.1488595000000714
1,1,baseline,3,43,20.0,61.0,1.0,0.55,2.0,1.0381277999999838
1,1,baseline,3,44,7.0,19.0,1.0,0.55,2.0,1.2945359999998942
1,1,baseline,3,45,28.0,86.0,1.0,0.55,2.0,1.431923099999949
1,1,baseline,3,46,10.0,19.0,1.0,0.55,1.0,1.2314066000003692
1,1,baseline,3,47,20.0,55.0,1.0,0.55,2.0,1.4058221999998892
1,1,baseline,3,48,7.0,12.0,1.0,0.55,1.0,1.1286064999999326
1,1,baseline,3,49,10.0,27.0,1.0,0.55,2.0,1.7935793999999987
1,1,baseline,3,50,20.0,55.0,1.0,0.55,1.0,1.2837455999996905
1,1,baseline,3,51,24.0,10.0,0.55,1.0,2.0,1.644761800000225
1,1,baseline,3,52,43.0,14.0,0.55,1.0,1.0,1.8571308000000784
1,1,baseline,3,53,17.0,10.0,0.55,1.0,2.0,0.8578349000003982
1,1,baseline,3,54,69.0,28.0,0.55,1.0,2.0,1.6700151000000005
1,1,baseline,3,55,12.0,7.0,0.55,1.0,2.0,0.7937000000001717
1,1,baseline,3,56,77.0,28.0,0.55,1.0,1.0,1.115988900000076
1,1,baseline,3,57,15.0,7.0,0.55,1.0,1.0,1.2260559999999714
1,1,baseline,3,58,24.0,14.0,0.55,1.0,2.0,0.632501300000115
1,1,baseline,3,59,38.0,14.0,0.55,1.0,2.0,1.498700799999824
1,1,baseline,3,60,39.0,20.0,0.55,1.0,2.0,1.1434008000000517
1,1,baseline,4,61,7.0,13.0,1.0,0.55,1.0,1.5405873999998256
1,1,baseline,4,62,14.0,38.0,1.0,0.55,1.0,1.1175403999996263
1,1,baseline,4,63,20.0,49.0,1.0,0.55,2.0,0.9059815000000881
1,1,baseline,4,64,20.0,35.0,1.0,0.55,1.0,0.8854956000004677
1,1,baseline,4,65,28.0,49.0,1.0,0.55,1.0,1.2680006999999023
1,1,baseline,4,66,10.0,22.0,1.0,0.55,1.0,1.0700047999998787
1,1,baseline,4,67,14.0,43.0,1.0,0.55,2.0,0.7330830000000645
1,1,baseline,4,68,14.0,34.0,1.0,0.55,2.0,1.1891693999996278
1,1,baseline,4,69,20.0,61.0,1.0,0.55,1.0,1.421872799999619
1,1,baseline,4,70,7.0,17.0,1.0,0.55,2.0,0.9220224999999118
1,1,baseline,4,71,19.0,10.0,0.55,1.0,2.0,1.0248952000001168
1,1,baseline,4,72,77.0,28.0,0.55,1.0,2.0,1.4990506000003734
1,1,baseline,4,73,44.0,20.0,0.55,1.0,2.0,0.8444517000007181
1,1,baseline,4,74,27.0,14.0,0.55,1.0,2.0,0.6370032999993782
1,1,baseline,4,75,21.0,7.0,0.55,1.0,1.0,1.0489846000000398
1,1,baseline,4,76,17.0,10.0,0.55,1.0,2.0,0.9429570000002059
1,1,baseline,4,77,55.0,20.0,0.55,1.0,1.0,1.6739204000004975
1,1,baseline,4,78,62.0,28.0,0.55,1.0,1.0,1.929826800000228
1,1,baseline,4,79,24.0,10.0,0.55,1.0,1.0,1.5193694999998115
1,1,baseline,4,80,24.0,14.0,0.55,1.0,2.0,0.6122523999993064
1,1,baseline,5,81,20.0,39.0,1.0,0.55,1.0,0.8582253000004201
1,1,baseline,5,82,14.0,34.0,1.0,0.55,1.0,1.2806566999997813
1,1,baseline,5,83,14.0,24.0,1.0,0.55,1.0,1.10169550000046
1,1,baseline,5,84,20.0,44.0,1.0,0.55,2.0,1.0444444000004296
1,1,baseline,5,85,10.0,17.0,1.0,0.55,1.0,0.9491213000001153
1,1,baseline,5,86,28.0,62.0,1.0,0.55,2.0,1.0291398999998052
1,1,baseline,5,87,10.0,22.0,1.0,0.55,1.0,1.0489096999999816
1,1,baseline,5,88,20.0,49.0,1.0,0.55,1.0,1.1589641000000626
1,1,baseline,5,89,28.0,77.0,1.0,0.55,2.0,0.7969038000001092
1,1,baseline,5,90,28.0,55.0,1.0,0.55,1.0,0.9275652000005721
1,1,baseline,5,91,17.0,7.0,0.55,1.0,2.0,1.2536823000000368
1,1,baseline,5,92,15.0,7.0,0.55,1.0,2.0,1.3003577999998015
1,1,baseline,5,93,27.0,10.0,0.55,1.0,2.0,0.9442181000003984
1,1,baseline,5,94,49.0,20.0,0.55,1.0,2.0,1.6617353999999978
1,1,baseline,5,95,38.0,14.0,0.55,1.0,1.0,1.0133358000002772
1,1,baseline,5,96,35.0,20.0,0.55,1.0,2.0,0.7564656000003822
1,1,baseline,5,97,55.0,28.0,0.55,1.0,2.0,0.9706935000003796
1,1,baseline,5,98,61.0,20.0,0.55,1.0,1.0,1.0264384000001883
1,1,baseline,5,99,19.0,7.0,0.55,1.0,2.0,1.3175640999997995
1,1,baseline,5,100,62.0,28.0,0.55,1.0,1.0,1.4344095000005836
1,1,baseline,6,101,43.0,14.0,0.55,1.0,2.0,1.5728804999998829
1,1,baseline,6,102,61.0,20.0,0.55,1.0,1.0,0.9674393000004784
1,1,baseline,6,103,27.0,14.0,0.55,1.0,2.0,0.8825154000005568
1,1,baseline,6,104,55.0,20.0,0.55,1.0,2.0,1.4594284000004336
1,1,baseline,6,105,34.0,14.0,0.55,1.0,2.0,0.7308499000000666
1,1,baseline,6,106,31.0,14.0,0.55,1.0,1.0,1.7910979999996783
1,1,baseline,6,107,55.0,28.0,0.55,1.0,2.0,1.1007270000000062
1,1,baseline,6,108,49.0,20.0,0.55,1.0,1.0,1.2171350999997372
1,1,baseline,6,109,22.0,10.0,0.55,1.0,1.0,1.5815117000001635
1,1,baseline,6,110,13.0,7.0,0.55,1.0,2.0,1.2865277999999307
1,1,baseline,6,111,28.0,77.0,1.0,0.55,1.0,1.5591803999996046
1,1,baseline,6,112,10.0,30.0,1.0,0.55,2.0,1.4646200999995926
1,1,baseline,6,113,7.0,19.0,1.0,0.55,1.0,1.803752899999381
1,1,baseline,6,114,14.0,27.0,1.0,0.55,1.0,0.8974066999999195
1,1,baseline,6,115,20.0,35.0,1.0,0.55,1.0,1.1236734000003992
1,1,baseline,6,116,10.0,30.0,1.0,0.55,2.0,1.2923725000000559
1,1,baseline,6,117,10.0,24.0,1.0,0.55,1.0,1.0624800000005052
1,1,baseline,6,118,14.0,43.0,1.0,0.55,2.0,1.0282579000003693
1,1,baseline,6,119,7.0,13.0,1.0,0.55,2.0,1.5962395000005927
1,1,baseline,6,120,28.0,69.0,1.0,0.55,1.0,1.5834457000000839
1,2,vertex,1,1,28.0,86.0,1.0,0.55,2.0,1.2396919000002526
1,2,vertex,1,2,7.0,21.0,1.0,0.55,2.0,0.8362194999999701
1,2,vertex,1,3,7.0,21.0,1.0,0.55,2.0,0.9313707000001159
1,2,vertex,1,4,10.0,24.0,1.0,0.55,1.0,1.1351639999998042
1,2,vertex,1,5,20.0,44.0,1.0,0.55,1.0,1.0321610000000874
1,2,vertex,1,6,10.0,27.0,1.0,0.55,2.0,1.4606127000001834
1,2,vertex,1,7,28.0,69.0,1.0,0.55,2.0,1.5011702999999983
1,2,vertex,1,8,10.0,19.0,1.0,0.55,1.0,1.0355183000001347
1,2,vertex,1,9,20.0,39.0,1.0,0.55,2.0,1.735000300000138
1,2,vertex,1,10,14.0,24.0,1.0,0.55,1.0,1.3559925999998086
1,2,vertex,1,11,49.0,28.0,0.55,1.0,2.0,1.3857062999995833
1,2,vertex,1,12,17.0,7.0,0.55,1.0,1.0,1.1313636000000145
1,2,vertex,1,13,13.0,7.0,0.55,1.0,2.0,1.5761294999997517
1,2,vertex,1,14,49.0,28.0,0.55,1.0,2.0,1.3678405000000566
1,2,vertex,1,15,31.0,14.0,0.55,1.0,2.0,1.5829902999998922
1,2,vertex,1,16,44.0,20.0,0.55,1.0,1.0,0.871086600000126
1,2,vertex,1,17,19.0,7.0,0.55,1.0,1.0,0.9487242000000151
1,2,vertex,1,18,35.0,20.0,0.55,1.0,2.0,1.46137009999984
1,2,vertex,1,19,12.0,7.0,0.55,1.0,2.0,0.9732994000000872
1,2,vertex,1,20,21.0,7.0,0.55,1.0,1.0,0.9964135000000169
1,2,vertex,2,21,69.0,28.0,0.55,1.0,1.0,1.2805940999996892
1,2,vertex,2,22,86.0,28.0,0.55,1.0,1.0,0.8827916999998635
1,2,vertex,2,23,27.0,10.0,0.55,1.0,1.0,1.720098599999801
1,2,vertex,2,24,30.0,10.0,0.55,1.0,2.0,1.2368412000000717
1,2,vertex,2,25,86.0,28.0,0.55,1.0,1.0,1.6151688999998441
1,2,vertex,2,26,22.0,10.0,0.55,1.0,2.0,1.5964165000000605
1,2,vertex,2,27,19.0,10.0,0.55,1.0,1.0,1.5988283000001644
1,2,vertex,2,28,34.0,14.0,0.55,1.0,2.0,1.3760048999997565
1,2,vertex,2,29,39.0,20.0,0.55,1.0,2.0,0.6635623000001942
1,2,vertex,2,30,30.0,10.0,0.55,1.0,1.0,1.4058423999999548
1,2,vertex,2,31,7.0,17.0,1.0,0.55,2.0,1.6160664999997607
1,2,vertex,2,32,14.0,31.0,1.0,0.55,1.0,1.7514135000000977
1,2,vertex,2,33,14.0,38.0,1.0,0.55,2.0,1.6215380999996967
1,2,vertex,2,34,7.0,12.0,1.0,0.55,1.0,1.2927220000001682
1,2,vertex,2,35,7.0,15.0,1.0,0.55,,
1,2,vertex,2,36,14.0,27.0,1.0,0.55,2.0,0.9304621000001418
1,2,vertex,2,37,10.0,17.0,1.0,0.55,1.0,1.0991867000002458
1,2,vertex,2,38,28.0,55.0,1.0,0.55,1.0,1.07777249999981
1,2,vertex,2,39,28.0,49.0,1.0,0.55,2.0,1.329109199999948
1,2,vertex,2,40,28.0,62.0,1.0,0.55,2.0,1.503548199999841
1,2,vertex,3,41,7.0,15.0,1.0,0.55,2.0,1.184330900000532
1,2,vertex,3,42,14.0,31.0,1.0,0.55,2.0,1.4860647999994399
1,2,vertex,3,43,20.0,61.0,1.0,0.55,2.0,0.94389240000055
1,2,vertex,3,44,7.0,19.0,1.0,0.55,2.0,1.2326608999992459
1,2,vertex,3,45,28.0,86.0,1.0,0.55,1.0,0.963768599999625
1,2,vertex,3,46,10.0,19.0,1.0,0.55,1.0,1.665396499999602
1,2,vertex,3,47,20.0,55.0,1.0,0.55,2.0,1.1978724000000653
1,2,vertex,3,48,7.0,12.0,1.0,0.55,1.0,1.6122848999993948
1,2,vertex,3,49,10.0,27.0,1.0,0.55,2.0,1.5829826999997465
1,2,vertex,3,50,20.0,55.0,1.0,0.55,1.0,0.9244444000005387
1,2,vertex,3,51,24.0,10.0,0.55,1.0,1.0,1.5189486999997257
1,2,vertex,3,52,43.0,14.0,0.55,1.0,1.0,1.6763688999999147
1,2,vertex,3,53,17.0,10.0,0.55,1.0,2.0,0.8723546000001079
1,2,vertex,3,54,69.0,28.0,0.55,1.0,1.0,1.1753453000000604
1,2,vertex,3,55,12.0,7.0,0.55,1.0,1.0,1.236581500000284
1,2,vertex,3,56,77.0,28.0,0.55,1.0,1.0,1.4251397000007273
1,2,vertex,3,57,15.0,7.0,0.55,1.0,1.0,0.8879218000001856
1,2,vertex,3,58,24.0,14.0,0.55,1.0,2.0,1.0739247000001342
1,2,vertex,3,59,38.0,14.0,0.55,1.0,2.0,1.5153432999995857
1,2,vertex,3,60,39.0,20.0,0.55,1.0,2.0,1.2994392999999604
1,2,vertex,4,61,7.0,13.0,1.0,0.55,2.0,1.8358084999999846
1,2,vertex,4,62,14.0,38.0,1.0,0.55,1.0,1.8776124999995005
1,2,vertex,4,63,20.0,49.0,1.0,0.55,2.0,1.5121054999999544
1,2,vertex,4,64,20.0,35.0,1.0,0.55,1.0,1.5267316999998144
1,2,vertex,4,65,28.0,49.0,1.0,0.55,1.0,0.9832701999994242
1,2,vertex,4,66,10.0,22.0,1.0,0.55,1.0,1.6180058999998437
1,2,vertex,4,67,14.0,43.0,1.0,0.55,2.0,0.8432709999997456
1,2,vertex,4,68,14.0,34.0,1.0,0.55,2.0,1.0374891999999676
1,2,vertex,4,69,20.0,61.0,1.0,0.55,2.0,1.5812643999997817
1,2,vertex,4,70,7.0,17.0,1.0,0.55,1.0,2.0406987000005756
1,2,vertex,4,71,19.0,10.0,0.55,1.0,1.0,1.4884014999997817
1,2,vertex,4,72,77.0,28.0,0.55,1.0,1.0,1.089169499999997
1,2,vertex,4,73,44.0,20.0,0.55,1.0,2.0,1.5992538000000707
1,2,vertex,4,74,27.0,14.0,0.55,1.0,2.0,1.1929936000005625
1,2,vertex,4,75,21.0,7.0,0.55,1.0,1.0,1.0200541000003795
1,2,vertex,4,76,17.0,10.0,0.55,1.0,1.0,1.5870240000003548
1,2,vertex,4,77,55.0,20.0,0.55,1.0,1.0,0.9085418999993635
1,2,vertex,4,78,62.0,28.0,0.55,1.0,2.0,1.2580454999997528
1,2,vertex,4,79,24.0,10.0,0.55,1.0,2.0,1.6041017999996257
1,2,vertex,4,80,24.0,14.0,0.55,1.0,1.0,2.0577969000005396
1,2,vertex,5,81,20.0,39.0,1.0,0.55,1.0,1.4008217999999033
1,2,vertex,5,82,14.0,34.0,1.0,0.55,2.0,1.5749751999992512
1,2,vertex,5,83,14.0,24.0,1.0,0.55,1.0,1.1560385000002498
1,2,vertex,5,84,20.0,44.0,1.0,0.55,2.0,0.951720999999452
1,2,vertex,5,85,10.0,17.0,1.0,0.55,1.0,1.3782172999999602
1,2,vertex,5,86,28.0,62.0,1.0,0.55,2.0,1.7338183999999899
1,2,vertex,5,87,10.0,22.0,1.0,0.55,1.0,0.9600778000003061
1,2,vertex,5,88,20.0,49.0,1.0,0.55,2.0,0.7802765999995103
1,2,vertex,5,89,28.0,77.0,1.0,0.55,2.0,1.0066968999999517
1,2,vertex,5,90,28.0,55.0,1.0,0.55,1.0,1.4232599999995728
1,2,vertex,5,91,17.0,7.0,0.55,1.0,2.0,1.6128584999996747
1,2,vertex,5,92,15.0,7.0,0.55,1.0,1.0,0.9139505999992537
1,2,vertex,5,93,27.0,10.0,0.55,1.0,2.0,1.5629288999998892
1,2,vertex,5,94,49.0,20.0,0.55,1.0,2.0,1.870201899999273
1,2,vertex,5,95,38.0,14.0,0.55,1.0,1.0,0.9437920999998823
1,2,vertex,5,96,35.0,20.0,0.55,1.0,2.0,0.9175869999999122
1,2,vertex,5,97,55.0,28.0,0.55,1.0,2.0,0.9977776999995172
1,2,vertex,5,98,61.0,20.0,0.55,1.0,1.0,0.8833282999994481
1,2,vertex,5,99,19.0,7.0,0.55,1.0,1.0,1.814416700000038
1,2,vertex,5,100,62.0,28.0,0.55,1.0,1.0,2.0808148999994955
1,2,vertex,6,101,43.0,14.0,0.55,1.0,2.0,1.5873711999993247
1,2,vertex,6,102,61.0,20.0,0.55,1.0,1.0,0.6483625999999276
1,2,vertex,6,103,27.0,14.0,0.55,1.0,2.0,1.4276731999998447
1,2,vertex,6,104,55.0,20.0,0.55,1.0,1.0,1.041399700000511
1,2,vertex,6,105,34.0,14.0,0.55,1.0,2.0,1.5410636999995404
1,2,vertex,6,106,31.0,14.0,0.55,1.0,2.0,1.7789893000008448
1,2,vertex,6,107,55.0,28.0,0.55,1.0,2.0,1.2893447000005551
1,2,vertex,6,108,49.0,20.0,0.55,1.0,1.0,1.2179735999998371
1,2,vertex,6,109,22.0,10.0,0.55,1.0,2.0,1.3947189999998955
1,2,vertex,6,110,13.0,7.0,0.55,1.0,2.0,0.803060799999912
1,2,vertex,6,111,28.0,77.0,1.0,0.55,2.0,0.87634970000002
1,2,vertex,6,112,10.0,30.0,1.0,0.55,2.0,1.474347399999715
1,2,vertex,6,113,7.0,19.0,1.0,0.55,2.0,0.8750905000005957
1,2,vertex,6,114,14.0,27.0,1.0,0.55,1.0,1.6381624000005104
1,2,vertex,6,115,20.0,35.0,1.0,0.55,1.0,1.0367196000007084
1,2,vertex,6,116,10.0,30.0,1.0,0.55,2.0,0.9659205999997766
1,2,vertex,6,117,10.0,24.0,1.0,0.55,1.0,2.352912100000111
1,2,vertex,6,118,14.0,43.0,1.0,0.55,2.0,1.8831411000000458
1,2,vertex,6,119,7.0,13.0,1.0,0.55,1.0,1.7732951999996658
1,2,vertex,6,120,28.0,69.0,1.0,0.55,2.0,0.6500544999998965
1,3,ips,1,1,20.0,55.0,1.0,0.55,1.0,1.0083902000001217
1,3,ips,1,2,20.0,39.0,1.0,0.55,1.0,1.3321200000000317
1,3,ips,1,3,10.0,17.0,1.0,0.55,1.0,0.8978929999997831
1,3,ips,1,4,7.0,15.0,1.0,0.55,2.0,0.985060699999849
1,3,ips,1,5,10.0,22.0,1.0,0.55,2.0,1.067714899999828
1,3,ips,1,6,20.0,61.0,1.0,0.55,2.0,0.8413719000000555
1,3,ips,1,7,20.0,44.0,1.0,0.55,1.0,1.2106124000001586
1,3,ips,1,8,20.0,49.0,1.0,0.55,2.0,1.3170691000000119
1,3,ips,1,9,20.0,55.0,1.0,0.55,2.0,0.9540219000001002
1,3,ips,1,10,28.0,86.0,1.0,0.55,2.0,0.6283810000000187
1,3,ips,1,11,30.0,10.0,0.55,1.0,1.0,1.3498696999999993
1,3,ips,1,12,38.0,14.0,0.55,1.0,1.0,0.8168364999997095
1,3,ips,1,13,77.0,28.0,0.55,1.0,1.0,0.887224400000008
1,3,ips,1,14,86.0,28.0,0.55,1.0,1.0,0.7587888000002465
1,3,ips,1,15,55.0,28.0,0.55,1.0,2.0,1.1880515999996533
1,3,ips,1,16,61.0,20.0,0.55,1.0,1.0,0.9568002000000888
1,3,ips,1,17,62.0,28.0,0.55,1.0,2.0,1.5208826999996745
1,3,ips,1,18,55.0,20.0,0.55,1.0,1.0,1.7418328999996788
1,3,ips,1,19,27.0,10.0,0.55,1.0,1.0,1.8425623000002815
1,3,ips,1,20,19.0,10.0,0.55,1.0,2.0,0.9566375999997945
1,3,ips,2,21,14.0,43.0,1.0,0.55,2.0,1.9358680999998796
1,3,ips,2,22,28.0,86.0,1.0,0.55,1.0,0.6661756000003081
1,3,ips,2,23,10.0,17.0,1.0,0.55,1.0,1.6983237999997982
1,3,ips,2,24,10.0,27.0,1.0,0.55,2.0,1.848149800000101
1,3,ips,2,25,7.0,17.0,1.0,0.55,1.0,0.7273384999998882
1,3,ips,2,26,7.0,17.0,1.0,0.55,2.0,1.5538885000000988
1,3,ips,2,27,10.0,19.0,1.0,0.55,2.0,1.4149328999997124
1,3,ips,2,28,7.0,13.0,1.0,0.55,2.0,1.6666770000001634
1,3,ips,2,29,28.0,69.0,1.0,0.55,2.0,0.8970211999999265
1,3,ips,2,30,28.0,55.0,1.0,0.55,1.0,1.4771926000003077
1,3,ips,2,31,49.0,28.0,0.55,1.0,2.0,0.7663670000002014
1,3,ips,2,32,31.0,14.0,0.55,1.0,2.0,1.9947431000000506
1,3,ips,2,33,22.0,10.0,0.55,1.0,2.0,1.6463965000002645
1,3,ips,2,34,39.0,20.0,0.55,1.0,2.0,1.2951453000000583
1,3,ips,2,35,27.0,14.0,0.55,1.0,1.0,1.4199228000002506
1,3,ips,2,36,21.0,7.0,0.55,1.0,1.0,0.7005837000000952
1,3,ips,2,37,61.0,20.0,0.55,1.0,1.0,0.9297596999999769
1,3,ips,2,38,13.0,7.0,0.55,1.0,2.0,1.4160945999997239
1,3,ips,2,39,24.0,10.0,0.55,1.0,2.0,1.8937731999999414
1,3,ips,2,40,39.0,20.0,0.55,1.0,2.0,0.9646342999999433
1,3,ips,3,41,44.0,20.0,0.55,1.0,1.0,0.8947607999998581
1,3,ips,3,42,86.0,28.0,0.55,1.0,1.0,0.9398874000003161
1,3,ips,3,43,12.0,7.0,0.55,1.0,1.0,1.7493899000000965
1,3,ips,3,44,49.0,20.0,0.55,1.0,2.0,1.7194319000000178
1,3,ips,3,45,24.0,14.0,0.55,1.0,2.0,1.0770478999997835
1,3,ips,3,46,31.0,14.0,0.55,1.0,1.0,1.9862459000000854
1,3,ips,3,47,12.0,7.0,0.55,1.0,2.0,1.6113864999997531
1,3,ips,3,48,24.0,10.0,0.55,1.0,2.0,1.8200182999999157
1,3,ips,3,49,17.0,10.0,0.55,1.0,2.0,0.8723008000001755
1,3,ips,3,50,43.0,14.0,0.55,1.0,1.0,0.9833598999998685
1,3,ips,3,51,14.0,38.0,1.0,0.55,2.0,1.9322282999997356
1,3,ips,3,52,10.0,27.0,1.0,0.55,2.0,1.6920577000000776
1,3,ips,3,53,7.0,19.0,1.0,0.55,2.0,1.4839850999996997
1,3,ips,3,54,28.0,62.0,1.0,0.55,1.0,1.9373927000001174
1,3,ips,3,55,7.0,13.0,1.0,0.55,1.0,2.9090064000002087
1,3,ips,3,56,20.0,49.0,1.0,0.55,2.0,1.696144399999838
1,3,ips,3,57,10.0,30.0,1.0,0.55,2.0,1.839569699999629
1,3,ips,3,58,14.0,31.0,1.0,0.55,1.0,2.2794159999998556
1,3,ips,3,59,10.0,24.0,1.0,0.55,2.0,0.9102803999999196
1,3,ips,3,60,20.0,39.0,1.0,0.55,2.0,1.9309994000004735
1,3,ips,4,61,14.0,27.0,1.0,0.55,1.0,1.2564604999997826
1,3,ips,4,62,20.0,61.0,1.0,0.55,2.0,1.4368970000004921
1,3,ips,4,63,28.0,69.0,1.0,0.55,1.0,1.523285900000701
1,3,ips,4,64,14.0,24.0,1.0,0.55,1.0,1.65856789999998
1,3,ips,4,65,28.0,55.0,1.0,0.55,2.0,0.8375343000006836
1,3,ips,4,66,7.0,15.0,1.0,0.55,2.0,2.4649031000008392
1,3,ips,4,67,28.0,62.0,1.0,0.55,2.0,1.20761500000026
1,3,ips,4,68,14.0,43.0,1.0,0.55,2.0,1.7344157000007243
1,3,ips,4,69,7.0,19.0,1.0,0.55,2.0,1.4418726999992941
1,3,ips,4,70,14.0,31.0,1.0,0.55,1.0,2.411229400000593
1,3,ips,4,71,34.0,14.0,0.55,1.0,1.0,2.2557225000000187
1,3,ips,4,72,62.0,28.0,0.55,1.0,2.0,1.1393911000004664
1,3,ips,4,73,69.0,28.0,0.55,1.0,1.0,2.1746761000003687
1,3,ips,4,74,19.0,10.0,0.55,1.0,2.0,0.8718181000003824
1,3,ips,4,75,43.0,14.0,0.55,1.0,1.0,1.0517723000002377
1,3,ips,4,76,21.0,7.0,0.55,1.0,1.0,2.1906066000001374
1,3,ips,4,77,34.0,14.0,0.55,1.0,2.0,1.0708076000000801
1,3,ips,4,78,44.0,20.0,0.55,1.0,2.0,0.9414983000006032
1,3,ips,4,79,30.0,10.0,0.55,1.0,1.0,1.2918540000000576
1,3,ips,4,80,69.0,28.0,0.55,1.0,2.0,1.6539669000003414
1,3,ips,5,81,10.0,19.0,1.0,0.55,2.0,1.866521300000386
1,3,ips,5,82,14.0,27.0,1.0,0.55,2.0,1.7903045000002749
1,3,ips,5,83,28.0,49.0,1.0,0.55,2.0,2.196093900000051
1,3,ips,5,84,7.0,12.0,1.0,0.55,1.0,2.24595649999992
1,3,ips,5,85,10.0,30.0,1.0,0.55,2.0,1.312173399999665
1,3,ips,5,86,28.0,49.0,1.0,0.55,1.0,1.2339817000001574
1,3,ips,5,87,14.0,24.0,1.0,0.55,1.0,0.9726739000007143
1,3,ips,5,88,28.0,77.0,1.0,0.55,2.0,1.2191315999998409
1,3,ips,5,89,10.0,24.0,1.0,0.55,2.0,1.1258947999995144
1,3,ips,5,90,7.0,21.0,1.0,0.55,2.0,1.9794376999998349
1,3,ips,5,91,13.0,7.0,0.55,1.0,2.0,0.6065163999992365
1,3,ips,5,92,55.0,28.0,0.55,1.0,1.0,1.6350222000000656
1,3,ips,5,93,19.0,7.0,0.55,1.0,1.0,0.6809402999997474
1,3,ips,5,94,27.0,14.0,0.55,1.0,1.0,1.9557500000001085
1,3,ips,5,95,49.0,20.0,0.55,1.0,1.0,1.5112603999996281
1,3,ips,5,96,55.0,20.0,0.55,1.0,1.0,1.0233182000001761
1,3,ips,5,97,17.0,7.0,0.55,1.0,1.0,0.841807499999959
1,3,ips,5,98,15.0,7.0,0.55,1.0,1.0,2.865720599999804
1,3,ips,5,99,77.0,28.0,0.55,1.0,1.0,0.5898118000004615
1,3,ips,5,100,17.0,7.0,0.55,1.0,1.0,0.7319222999994963
1,3,ips,6,101,14.0,38.0,1.0,0.55,2.0,2.0673634000004313
1,3,ips,6,102,10.0,22.0,1.0,0.55,1.0,0.9902295000001686
1,3,ips,6,103,14.0,34.0,1.0,0.55,2.0,0.8894268000003578
1,3,ips,6,104,14.0,34.0,1.0,0.55,2.0,1.6929878999999346
1,3,ips,6,105,7.0,21.0,1.0,0.55,2.0,0.6106621999997515
1,3,ips,6,106,20.0,35.0,1.0,0.55,1.0,1.2581927000000803
1,3,ips,6,107,28.0,77.0,1.0,0.55,2.0,0.6168180999993638
1,3,ips,6,108,7.0,12.0,1.0,0.55,2.0,2.060013199999986
1,3,ips,6,109,20.0,35.0,1.0,0.55,2.0,2.608473399999639
1,3,ips,6,110,20.0,44.0,1.0,0.55,2.0,1.0188085000000058
1,3,ips,6,111,35.0,20.0,0.55,1.0,1.0,2.378922400000164
1,3,ips,6,112,19.0,7.0,0.55,1.0,1.0,0.7927744000007806
1,3,ips,6,113,24.0,14.0,0.55,1.0,2.0,1.8985265000001164
1,3,ips,6,114,15.0,7.0,0.55,1.0,1.0,2.188178299999919
1,3,ips,6,115,35.0,20.0,0.55,1.0,2.0,0.5944612000002678
1,3,ips,6,116,27.0,10.0,0.55,1.0,2.0,1.9447606000002793
1,3,ips,6,117,38.0,14.0,0.55,1.0,1.0,1.384278200000125
1,3,ips,6,118,49.0,28.0,0.55,1.0,2.0,1.8845406999998886
1,3,ips,6,119,22.0,10.0,0.55,1.0,1.0,0.7494122999996762
1,3,ips,6,120,17.0,10.0,0.55,1.0,1.0,2.4634312999996837
2,1,baseline,1,1,9.0,7.0,0.55,1.0,2.0,0.6911522000009427
2,1,baseline,1,2,56.0,14.0,0.55,1.0,1.0,0.6881768000003063
2,1,baseline,1,3,22.0,14.0,0.55,1.0,2.0,0.4092605999994916
2,1,baseline,1,4,40.0,10.0,0.55,1.0,1.0,0.36420449999968696
2,1,baseline,1,5,56.0,14.0,0.55,1.0,2.0,0.4277339000000495
2,1,baseline,1,6,44.0,14.0,0.55,1.0,1.0,0.7900312000001577
2,1,baseline,1,7,71.0,28.0,0.55,1.0,1.0,0.8196377999993132
2,1,baseline,1,8,112.0,28.0,0.55,1.0,1.0,0.7796311000001594
2,1,baseline,1,9,63.0,20.0,0.55,1.0,1.0,0.7125652999984595
2,1,baseline,1,10,35.0,14.0,0.55,1.0,2.0,0.6027959999992163
2,1,baseline,1,11,20.0,25.0,1.0,0.55,1.0,1.030733199999304
2,1,baseline,1,12,28.0,112.0,1.0,0.55,2.0,0.7255196000005242
2,1,baseline,1,13,7.0,17.0,1.0,0.55,1.0,1.1670491999994113
2,1,baseline,1,14,10.0,12.0,1.0,0.55,2.0,0.8443326999986311
2,1,baseline,1,15,20.0,40.0,1.0,0.55,1.0,1.1569980000003284
2,1,baseline,1,16,10.0,31.0,1.0,0.55,1.0,0.7291002999991179
2,1,baseline,1,17,7.0,11.0,1.0,0.55,1.0,1.0227179000012256
2,1,baseline,1,18,28.0,89.0,1.0,0.55,1.0,1.4492719999998371
2,1,baseline,1,19,10.0,16.0,1.0,0.55,1.0,1.001159400000688
2,1,baseline,1,20,14.0,56.0,1.0,0.55,1.0,1.2459088000013594
2,1,baseline,2,21,44.0,14.0,0.55,1.0,1.0,1.0754511999985006
2,1,baseline,2,22,56.0,28.0,0.55,1.0,1.0,1.116932299999462
2,1,baseline,2,23,28.0,14.0,0.55,1.0,2.0,1.3898232000010466
2,1,baseline,2,24,80.0,20.0,0.55,1.0,1.0,0.6332125999997373
2,1,baseline,2,25,16.0,10.0,0.55,1.0,2.0,0.5402661999996781
2,1,baseline,2,26,56.0,28.0,0.55,1.0,1.0,0.58805270000083
2,1,baseline,2,27,31.0,10.0,0.55,1.0,1.0,1.2745348999997077
2,1,baseline,2,28,20.0,10.0,0.55,1.0,2.0,0.7673289999983979
2,1,baseline,2,29,14.0,7.0,0.55,1.0,1.0,0.9244715000004362
2,1,baseline,2,30,89.0,28.0,0.55,1.0,1.0,0.8612981000005959
2,1,baseline,2,31,14.0,22.0,1.0,0.55,1.0,1.1375661999991564
2,1,baseline,2,32,14.0,18.0,1.0,0.55,1.0,0.7936191000007966
2,1,baseline,2,33,7.0,22.0,1.0,0.55,2.0,0.4826345000001311
2,1,baseline,2,34,14.0,44.0,1.0,0.55,2.0,0.6392114000009315
2,1,baseline,2,35,28.0,36.0,1.0,0.55,1.0,0.7386961000011354
2,1,baseline,2,36,10.0,40.0,1.0,0.55,2.0,0.7117139000001771
2,1,baseline,2,37,10.0,20.0,1.0,0.55,1.0,0.6505917000013142
2,1,baseline,2,38,28.0,56.0,1.0,0.55,2.0,0.8754310000004466
2,1,baseline,2,39,7.0,28.0,1.0,0.55,2.0,1.6995889999998326
2,1,baseline,2,40,20.0,40.0,1.0,0.55,1.0,0.4193823000005068
2,1,baseline,3,41,45.0,28.0,0.55,1.0,1.0,1.0049682000008033
2,1,baseline,3,42,50.0,20.0,0.55,1.0,1.0,0.9335592999996152
2,1,baseline,3,43,9.0,7.0,0.55,1.0,2.0,0.39066600000116125
2,1,baseline,3,44,28.0,7.0,0.55,1.0,1.0,0.7835501999998087
2,1,baseline,3,45,32.0,20.0,0.55,1.0,2.0,0.6789358999995017
2,1,baseline,3,46,32.0,20.0,0.55,1.0,2.0,0.7852198000000641
2,1,baseline,3,47,22.0,7.0,0.55,1.0,1.0,1.3686295000006794
2,1,baseline,3,48,22.0,7.0,0.55,1.0,1.0,0.7875745000001189
2,1,baseline,3,49,18.0,14.0,0.55,1.0,2.0,0.7935811999996076
2,1,baseline,3,50,31.0,10.0,0.55,1.0,1.0,0.7560972999999649
2,1,baseline,3,51,20.0,50.0,1.0,0.55,2.0,0.9120198000000528
2,1,baseline,3,52,20.0,32.0,1.0,0.55,1.0,1.3628430000008223
2,1,baseline,3,53,20.0,32.0,1.0,0.55,1.0,0.7925933999995323
2,1,baseline,3,54,10.0,31.0,1.0,0.55,2.0,0.3301372000005358
2,1,baseline,3,55,28.0,45.0,1.0,0.55,2.0,0.4962484999996377
2,1,baseline,3,56,20.0,80.0,1.0,0.55,2.0,0.6029706000008446
2,1,baseline,3,57,7.0,22.0,1.0,0.55,2.0,0.4832575000000361
2,1,baseline,3,58,14.0,44.0,1.0,0.55,2.0,0.6156991999996535
2,1,baseline,3,59,7.0,14.0,1.0,0.55,2.0,1.5365447999993194
2,1,baseline,3,60,14.0,28.0,1.0,0.55,2.0,1.531164700001682
2,1,baseline,4,61,14.0,35.0,1.0,0.55,1.0,1.175302300000105
2,1,baseline,4,62,10.0,25.0,1.0,0.55,2.0,0.4397223000014492
2,1,baseline,4,63,14.0,28.0,1.0,0.55,2.0,0.3416553000006388
2,1,baseline,4,64,20.0,63.0,1.0,0.55,2.0,0.4940557999998276
2,1,baseline,4,65,14.0,35.0,1.0,0.55,1.0,0.9073138999992807
2,1,baseline,4,66,10.0,20.0,1.0,0.55,2.0,0.39274810000095783
2,1,baseline,4,67,28.0,71.0,1.0,0.55,2.0,0.6274803000014799
2,1,baseline,4,68,7.0,11.0,1.0,0.55,1.0,0.5820239000003937
2,1,baseline,4,69,28.0,71.0,1.0,0.55,2.0,0.4464358999994147
2,1,baseline,4,70,10.0,12.0,1.0,0.55,1.0,0.6498566000009021
2,1,baseline,4,71,14.0,7.0,0.55,1.0,2.0,0.28647040000032575
2,1,baseline,4,72,17.0,7.0,0.55,1.0,2.0,0.4061617000006379
2,1,baseline,4,73,36.0,28.0,0.55,1.0,2.0,0.8858471999992332
2,1,baseline,4,74,28.0,14.0,0.55,1.0,2.0,0.2941517999989003
2,1,baseline,4,75,28.0,7.0,0.55,1.0,1.0,0.6638616000000184
2,1,baseline,4,76,17.0,7.0,0.55,1.0,2.0,0.7243066000010003
2,1,baseline,4,77,12.0,10.0,0.55,1.0,2.0,0.3907006999997975
2,1,baseline,4,78,25.0,20.0,0.55,1.0,2.0,0.8215798999990511
2,1,baseline,4,79,11.0,7.0,0.55,1.0,1.0,0.799207000000024
2,1,baseline,4,80,12.0,10.0,0.55,1.0,2.0,0.6730736999998044
2,1,baseline,5,81,20.0,50.0,1.0,0.55,2.0,1.1882015999999567
2,1,baseline,5,82,20.0,63.0,1.0,0.55,2.0,0.7483197000001454
2,1,baseline,5,83,14.0,18.0,1.0,0.55,1.0,0.6017670999990443
2,1,baseline,5,84,7.0,17.0,1.0,0.55,1.0,0.7028458999993887
2,1,baseline,5,85,28.0,45.0,1.0,0.55,2.0,0.7275124999996478
2,1,baseline,5,86,7.0,9.0,1.0,0.55,1.0,0.6117223000001246
2,1,baseline,5,87,7.0,28.0,1.0,0.55,2.0,0.5279471000012421
2,1,baseline,5,88,10.0,25.0,1.0,0.55,1.0,1.03453330000049
2,1,baseline,5,89,7.0,14.0,1.0,0.55,1.0,0.7010743000009825
2,1,baseline,5,90,28.0,36.0,1.0,0.55,1.0,0.8187328999993042
2,1,baseline,5,91,22.0,14.0,0.55,1.0,2.0,0.5836859000010577
2,1,baseline,5,92,25.0,20.0,0.55,1.0,2.0,0.2865668000013386
2,1,baseline,5,93,40.0,20.0,0.55,1.0,1.0,0.966954400000759
2,1,baseline,5,94,18.0,14.0,0.55,1.0,2.0,0.6142460000010317
2,1,baseline,5,95,35.0,14.0,0.55,1.0,1.0,0.5731477999998162
2,1,baseline,5,96,25.0,10.0,0.55,1.0,1.0,0.8011598999983391
2,1,baseline,5,97,89.0,28.0,0.55,1.0,1.0,0.5326559000004636
2,1,baseline,5,98,20.0,10.0,0.55,1.0,2.0,0.27269300000079966
2,1,baseline,5,99,40.0,10.0,0.55,1.0,2.0,0.6965686000003188
2,1,baseline,5,100,71.0,28.0,0.55,1.0,1.0,0.45881699999881675
2,1,baseline,6,101,10.0,16.0,1.0,0.55,1.0,0.6478317999990395
2,1,baseline,6,102,28.0,112.0,1.0,0.55,2.0,0.4920658999999432
2,1,baseline,6,103,14.0,56.0,1.0,0.55,2.0,0.7240999999994528
2,1,baseline,6,104,7.0,9.0,1.0,0.55,1.0,0.5208946000002328
2,1,baseline,6,105,14.0,22.0,1.0,0.55,1.0,1.0371111999993445
2,1,baseline,6,106,20.0,25.0,1.0,0.55,1.0,0.5107914000000022
2,1,baseline,6,107,28.0,56.0,1.0,0.55,2.0,0.5345479000007032
2,1,baseline,6,108,28.0,89.0,1.0,0.55,2.0,0.45717599999989034
2,1,baseline,6,109,10.0,40.0,1.0,0.55,1.0,0.7632800999999745
2,1,baseline,6,110,20.0,80.0,1.0,0.55,2.0,0.3543634999987262
2,1,baseline,6,111,36.0,28.0,0.55,1.0,2.0,0.6497560999997063
2,1,baseline,6,112,63.0,20.0,0.55,1.0,1.0,0.4322909999991964
2,1,baseline,6,113,80.0,20.0,0.55,1.0,1.0,0.36943760000033876
2,1,baseline,6,114,11.0,7.0,0.55,1.0,2.0,0.3064878000004967
2,1,baseline,6,115,16.0,10.0,0.55,1.0,2.0,0.306675499999983
2,1,baseline,6,116,112.0,28.0,0.55,1.0,1.0,0.3985534000002815
2,1,baseline,6,117,25.0,10.0,0.55,1.0,2.0,0.702899999998408
2,1,baseline,6,118,50.0,20.0,0.55,1.0,1.0,0.5210018999987369
2,1,baseline,6,119,40.0,20.0,0.55,1.0,2.0,0.3733124999998836
2,1,baseline,6,120,45.0,28.0,0.55,1.0,2.0,0.47798900000088906
2,2,vertex,1,1,56.0,14.0,0.55,1.0,1.0,0.8100376999991568
2,2,vertex,1,2,40.0,10.0,0.55,1.0,1.0,1.3008728000004197
2,2,vertex,1,3,28.0,14.0,0.55,1.0,2.0,0.7746465000000171
2,2,vertex,1,4,22.0,7.0,0.55,1.0,1.0,0.9023309000003792
2,2,vertex,1,5,112.0,28.0,0.55,1.0,1.0,1.2643967999993038
2,2,vertex,1,6,45.0,28.0,0.55,1.0,2.0,0.6069412000015433
2,2,vertex,1,7,80.0,20.0,0.55,1.0,1.0,0.6998088000000422
2,2,vertex,1,8,16.0,10.0,0.55,1.0,2.0,0.5511067999996442
2,2,vertex,1,9,35.0,14.0,0.55,1.0,1.0,0.8357897000005607
2,2,vertex,1,10,63.0,20.0,0.55,1.0,1.0,0.4789770999996108
2,2,vertex,1,11,14.0,35.0,1.0,0.55,1.0,0.41327239999918675
2,2,vertex,1,12,20.0,25.0,1.0,0.55,1.0,0.5066448000015669
2,2,vertex,1,13,14.0,44.0,1.0,0.55,2.0,0.7686709000008705
2,2,vertex,1,14,7.0,28.0,1.0,0.55,2.0,0.43733429999878126
2,2,vertex,1,15,10.0,12.0,1.0,0.55,1.0,0.9001223999984518
2,2,vertex,1,16,14.0,18.0,1.0,0.55,1.0,0.5948833000002764
2,2,vertex,1,17,28.0,56.0,1.0,0.55,1.0,0.48914520000107586
2,2,vertex,1,18,7.0,11.0,1.0,0.55,1.0,0.6505388000005041
2,2,vertex,1,19,28.0,112.0,1.0,0.55,2.0,0.6009095999997953
2,2,vertex,1,20,20.0,40.0,1.0,0.55,2.0,0.5079358000003253
2,2,vertex,2,21,14.0,35.0,1.0,0.55,2.0,0.5427641999995103
2,2,vertex,2,22,28.0,71.0,1.0,0.55,2.0,0.9830813999997261
2,2,vertex,2,23,20.0,50.0,1.0,0.55,1.0,0.3401867000011478
2,2,vertex,2,24,28.0,45.0,1.0,0.55,1.0,0.6830413000006956
2,2,vertex,2,25,10.0,20.0,1.0,0.55,2.0,0.6740174999995219
2,2,vertex,2,26,20.0,40.0,1.0,0.55,2.0,0.5420283000003252
2,2,vertex,2,27,7.0,17.0,1.0,0.55,2.0,0.2997765999989639
2,2,vertex,2,28,14.0,44.0,1.0,0.55,,
2,2,vertex,2,29,7.0,28.0,1.0,0.55,2.0,0.5291691000002174
2,2,vertex,2,30,20.0,32.0,1.0,0.55,1.0,0.4434371000006365
2,2,vertex,2,31,44.0,14.0,0.55,1.0,1.0,0.712220199999166
2,2,vertex,2,32,31.0,10.0,0.55,1.0,1.0,0.6379739000003894
2,2,vertex,2,33,40.0,10.0,0.55,1.0,1.0,0.5636666999999136
2,2,vertex,2,34,25.0,20.0,0.55,1.0,1.0,0.817983699998905
2,2,vertex,2,35,56.0,28.0,0.55,1.0,1.0,0.6303707000006682
2,2,vertex,2,36,32.0,20.0,0.55,1.0,2.0,0.7884207999995851
2,2,vertex,2,37,17.0,7.0,0.55,1.0,,
2,2,vertex,2,38,25.0,20.0,0.55,1.0,1.0,0.5397188000006281
2,2,vertex,2,39,32.0,20.0,0.55,1.0,,
2,2,vertex,2,40,40.0,20.0,0.55,1.0,1.0,0.28443390000029467
2,2,vertex,3,41,20.0,50.0,1.0,0.55,2.0,0.5627457999999024
2,2,vertex,3,42,10.0,16.0,1.0,0.55,1.0,0.6393105000006472
2,2,vertex,3,43,7.0,22.0,1.0,0.55,2.0,0.9657711999989331
2,2,vertex,3,44,20.0,80.0,1.0,0.55,2.0,1.0594881000015448
2,2,vertex,3,45,10.0,31.0,1.0,0.55,2.0,0.6967437000002974
2,2,vertex,3,46,28.0,36.0,1.0,0.55,1.0,0.6376368999990376
2,2,vertex,3,47,28.0,71.0,1.0,0.55,2.0,0.8066521000000364
2,2,vertex,3,48,14.0,28.0,1.0,0.55,2.0,2.3451701999983925
2,2,vertex,3,49,10.0,20.0,1.0,0.55,2.0,0.6081529999992199
2,2,vertex,3,50,7.0,9.0,1.0,0.55,2.0,0.41397309999956633
2,2,vertex,3,51,89.0,28.0,0.55,1.0,1.0,0.7903466999996738
2,2,vertex,3,52,31.0,10.0,0.55,1.0,2.0,1.0483671000002062
2,2,vertex,3,53,50.0,20.0,0.55,1.0,2.0,0.9370761999998649
2,2,vertex,3,54,28.0,14.0,0.55,1.0,1.0,0.6492735999999866
2,2,vertex,3,55,18.0,14.0,0.55,1.0,,
2,2,vertex,3,56,71.0,28.0,0.55,1.0,1.0,1.7176264999998239
2,2,vertex,3,57,40.0,20.0,0.55,1.0,1.0,5.378543400000126
2,2,vertex,3,58,20.0,10.0,0.55,1.0,2.0,0.37544309999975667
2,2,vertex,3,59,18.0,14.0,0.55,1.0,2.0,0.5754431999994267
2,2,vertex,3,60,28.0,7.0,0.55,1.0,1.0,0.5247997999995277
2,2,vertex,4,61,14.0,7.0,0.55,1.0,,
2,2,vertex,4,62,50.0,20.0,0.55,1.0,2.0,0.8313412999996217
2,2,vertex,4,63,11.0,7.0,0.55,1.0,,
2,2,vertex,4,64,56.0,28.0,0.55,1.0,1.0,0.6590446000009251
2,2,vertex,4,65,28.0,7.0,0.55,1.0,1.0,0.5792134999992413
2,2,vertex,4,66,9.0,7.0,0.55,1.0,1.0,1.1227816000009625
2,2,vertex,4,67,112.0,28.0,0.55,1.0,1.0,0.7259350000003906
2,2,vertex,4,68,45.0,28.0,0.55,1.0,2.0,0.8293470000007801
2,2,vertex,4,69,14.0,7.0,0.55,1.0,1.0,0.5222955000008369
2,2,vertex,4,70,44.0,14.0,0.55,1.0,,
2,2,vertex,4,71,14.0,56.0,1.0,0.55,2.0,0.437298700000639
2,2,vertex,4,72,7.0,14.0,1.0,0.55,1.0,0.7029130999998756
2,2,vertex,4,73,20.0,32.0,1.0,0.55,1.0,0.9840862999990065
2,2,vertex,4,74,20.0,80.0,1.0,0.55,1.0,1.5848726000003523
2,2,vertex,4,75,10.0,12.0,1.0,0.55,1.0,1.2329367000002378
2,2,vertex,4,76,10.0,16.0,1.0,0.55,,
2,2,vertex,4,77,28.0,36.0,1.0,0.55,1.0,0.1303473000007216
2,2,vertex,4,78,14.0,18.0,1.0,0.55,1.0,0.9335423999982595
2,2,vertex,4,79,14.0,56.0,1.0,0.55,2.0,0.5225807999995595
2,2,vertex,4,80,7.0,14.0,1.0,0.55,2.0,0.3677899000012985
2,2,vertex,5,81,20.0,25.0,1.0,0.55,1.0,0.2982267999996111
2,2,vertex,5,82,28.0,89.0,1.0,0.55,2.0,0.5111579999993481
2,2,vertex,5,83,7.0,11.0,1.0,0.55,2.0,0.45746780000081344
2,2,vertex,5,84,14.0,22.0,1.0,0.55,1.0,0.7059847000000445
2,2,vertex,5,85,28.0,56.0,1.0,0.55,1.0,0.42183079999996664
2,2,vertex,5,86,28.0,45.0,1.0,0.55,2.0,0.3911760000010247
2,2,vertex,5,87,10.0,40.0,1.0,0.55,1.0,1.5262254999997538
2,2,vertex,5,88,14.0,28.0,1.0,0.55,1.0,0.8008731000008993
2,2,vertex,5,89,10.0,25.0,1.0,0.55,2.0,1.8375290999993013
2,2,vertex,5,90,28.0,89.0,1.0,0.55,2.0,0.7494679999999789
2,2,vertex,5,91,80.0,20.0,0.55,1.0,1.0,1.4281511000008322
2,2,vertex,5,92,22.0,14.0,0.55,1.0,1.0,0.7011849000009818
2,2,vertex,5,93,22.0,7.0,0.55,1.0,1.0,0.6093703000005348
2,2,vertex,5,94,17.0,7.0,0.55,1.0,2.0,1.6807138000003476
2,2,vertex,5,95,63.0,20.0,0.55,1.0,2.0,0.45965760000035516
2,2,vertex,5,96,56.0,14.0,0.55,1.0,1.0,0.47189340000110747
2,2,vertex,5,97,25.0,10.0,0.55,1.0,1.0,0.4313459000004798
2,2,vertex,5,98,11.0,7.0,0.55,1.0,1.0,0.5807547999992835
2,2,vertex,5,99,9.0,7.0,0.55,1.0,2.0,0.5019238000004407
2,2,vertex,5,100,22.0,14.0,0.55,1.0,1.0,0.6418914000005316
2,2,vertex,6,101,7.0,17.0,1.0,0.55,2.0,0.5933907999988115
2,2,vertex,6,102,10.0,40.0,1.0,0.55,2.0,0.450650000000671
2,2,vertex,6,103,28.0,112.0,1.0,0.55,2.0,0.5453312000008737
2,2,vertex,6,104,20.0,63.0,1.0,0.55,2.0,0.6502989000000525
2,2,vertex,6,105,10.0,31.0,1.0,0.55,2.0,0.46120650000013086
2,2,vertex,6,106,20.0,63.0,1.0,0.55,1.0,0.3295192000004761
2,2,vertex,6,107,7.0,9.0,1.0,0.55,1.0,0.6217238000008507
2,2,vertex,6,108,10.0,25.0,1.0,0.55,2.0,0.3499102000005223
2,2,vertex,6,109,14.0,22.0,1.0,0.55,1.0,0.6697494999989431
2,2,vertex,6,110,7.0,22.0,1.0,0.55,2.0,0.3548255000005156
2,2,vertex,6,111,12.0,10.0,0.55,1.0,2.0,0.27596470000028717
2,2,vertex,6,112,89.0,28.0,0.55,1.0,1.0,0.5766298999988066
2,2,vertex,6,113,16.0,10.0,0.55,1.0,1.0,0.4838515000010375
2,2,vertex,6,114,12.0,10.0,0.55,1.0,2.0,0.2938733999999954
2,2,vertex,6,115,20.0,10.0,0.55,1.0,2.0,0.32557119999910356
2,2,vertex,6,116,25.0,10.0,0.55,1.0,2.0,0.42058040000122787
2,2,vertex,6,117,35.0,14.0,0.55,1.0,2.0,0.5456825999991111
2,2,vertex,6,118,36.0,28.0,0.55,1.0,2.0,0.47587859999839566
2,2,vertex,6,119,36.0,28.0,0.55,1.0,2.0,0.600809699999445
2,2,vertex,6,120,71.0,28.0,0.55,1.0,1.0,0.41913039999963075
2,3,ips,1,1,14.0,7.0,0.55,1.0,1.0,0.8828556000000845
2,3,ips,1,2,25.0,20.0,0.55,1.0,2.0,0.45755750000012085
2,3,ips,1,3,56.0,14.0,0.55,1.0,1.0,0.8793138000001051
2,3,ips,1,4,45.0,28.0,0.55,1.0,2.0,0.4745937000000424
2,3,ips,1,5,44.0,14.0,0.55,1.0,1.0,0.529774500000002
2,3,ips,1,6,89.0,28.0,0.55,1.0,1.0,0.548967000000161
2,3,ips,1,7,56.0,14.0,0.55,1.0,1.0,0.5501904999998857
2,3,ips,1,8,56.0,28.0,0.55,1.0,2.0,0.25255540000011933
2,3,ips,1,9,25.0,10.0,0.55,1.0,2.0,0.1759538999999961
2,3,ips,1,10,9.0,7.0,0.55,1.0,2.0,0.22156780000000253
2,3,ips,1,11,10.0,25.0,1.0,0.55,2.0,0.9437768000000517
2,3,ips,1,12,14.0,28.0,1.0,0.55,1.0,0.26005239999992114
2,3,ips,1,13,7.0,14.0,1.0,0.55,2.0,0.23640470000009373
2,3,ips,1,14,14.0,22.0,1.0,0.55,2.0,0.39273570000005975
2,3,ips,1,15,14.0,18.0,1.0,0.55,1.0,0.4260731999999905
2,3,ips,1,16,14.0,18.0,1.0,0.55,2.0,0.3990150000001904
2,3,ips,1,17,7.0,17.0,1.0,0.55,2.0,0.4523993000000246
2,3,ips,1,18,7.0,11.0,1.0,0.55,2.0,0.34857970000001615
2,3,ips,1,19,7.0,22.0,1.0,0.55,2.0,0.37779760000012175
2,3,ips,1,20,28.0,71.0,1.0,0.55,1.0,0.24443120000000818
2,3,ips,2,21,63.0,20.0,0.55,1.0,1.0,0.3577173999999559
2,3,ips,2,22,112.0,28.0,0.55,1.0,1.0,0.3968274000001273
2,3,ips,2,23,16.0,10.0,0.55,1.0,2.0,0.592706299999918
2,3,ips,2,24,17.0,7.0,0.55,1.0,2.0,0.2836973000000853
2,3,ips,2,25,50.0,20.0,0.55,1.0,2.0,0.4859764999998788
2,3,ips,2,26,14.0,7.0,0.55,1.0,2.0,0.29043830000001947
2,3,ips,2,27,28.0,14.0,0.55,1.0,1.0,0.4830537000000277
2,3,ips,2,28,80.0,20.0,0.55,1.0,1.0,0.7371971000000173
2,3,ips,2,29,31.0,10.0,0.55,1.0,1.0,0.5223269999999047
2,3,ips,2,30,28.0,14.0,0.55,1.0,2.0,0.4991333999998915
2,3,ips,2,31,14.0,28.0,1.0,0.55,2.0,0.41110900000012407
2,3,ips,2,32,28.0,56.0,1.0,0.55,1.0,0.15203150000002097
2,3,ips,2,33,20.0,50.0,1.0,0.55,2.0,0.2898725000000013
2,3,ips,2,34,20.0,25.0,1.0,0.55,1.0,0.6634383999999329
2,3,ips,2,35,10.0,12.0,1.0,0.55,2.0,0.25257080000008614
2,3,ips,2,36,7.0,9.0,1.0,0.55,2.0,0.09984920000010788
2,3,ips,2,37,28.0,45.0,1.0,0.55,1.0,0.3713788999998542
2,3,ips,2,38,28.0,36.0,1.0,0.55,1.0,0.5738005999999132
2,3,ips,2,39,20.0,63.0,1.0,0.55,2.0,0.5658358000000021
2,3,ips,2,40,10.0,40.0,1.0,0.55,2.0,0.25786790000006476
2,3,ips,3,41,20.0,32.0,1.0,0.55,2.0,0.45978200000013203
2,3,ips,3,42,28.0,71.0,1.0,0.55,2.0,0.3386465999999544
2,3,ips,3,43,20.0,25.0,1.0,0.55,2.0,1.0577676000000338
2,3,ips,3,44,14.0,44.0,1.0,0.55,2.0,0.36786549999987983
2,3,ips,3,45,10.0,16.0,1.0,0.55,2.0,0.2812421000000995
2,3,ips,3,46,10.0,25.0,1.0,0.55,2.0,0.2734547999998682
2,3,ips,3,47,20.0,40.0,1.0,0.55,1.0,0.35764210000000674
2,3,ips,3,48,10.0,20.0,1.0,0.55,2.0,0.18255629999995904
2,3,ips,3,49,7.0,22.0,1.0,0.55,2.0,0.2853464999998323
2,3,ips,3,50,7.0,28.0,1.0,0.55,1.0,0.3318666000000121
2,3,ips,3,51,17.0,7.0,0.55,1.0,2.0,0.4050662999998451
2,3,ips,3,52,22.0,7.0,0.55,1.0,1.0,0.3651978000002032
2,3,ips,3,53,112.0,28.0,0.55,1.0,1.0,0.34850360000021396
2,3,ips,3,54,35.0,14.0,0.55,1.0,1.0,0.5088680999997166
2,3,ips,3,55,11.0,7.0,0.55,1.0,2.0,0.34041670000033264
2,3,ips,3,56,31.0,10.0,0.55,1.0,1.0,0.2554304999998749
2,3,ips,3,57,18.0,14.0,0.55,1.0,2.0,0.4653592999998466
2,3,ips,3,58,25.0,20.0,0.55,1.0,2.0,0.447984599999927
2,3,ips,3,59,63.0,20.0,0.55,1.0,1.0,0.3508678000002874
2,3,ips,3,60,50.0,20.0,0.55,1.0,1.0,0.5077354000000014
2,3,ips,4,61,10.0,40.0,1.0,0.55,2.0,0.2745368000000745
2,3,ips,4,62,28.0,56.0,1.0,0.55,1.0,0.4903196999998656
2,3,ips,4,63,20.0,63.0,1.0,0.55,2.0,0.427900099999988
2,3,ips,4,64,7.0,11.0,1.0,0.55,2.0,0.3720448999997785
2,3,ips,4,65,14.0,22.0,1.0,0.55,1.0,0.4181527999999304
2,3,ips,4,66,28.0,36.0,1.0,0.55,1.0,0.8354169999998078
2,3,ips,4,67,10.0,12.0,1.0,0.55,2.0,0.3912590999998571
2,3,ips,4,68,28.0,45.0,1.0,0.55,1.0,0.39920140000005233
2,3,ips,4,69,7.0,28.0,1.0,0.55,2.0,0.3779230000000098
2,3,ips,4,70,10.0,31.0,1.0,0.55,2.0,0.3113146999999117
2,3,ips,4,71,20.0,10.0,0.55,1.0,1.0,0.4924929999997403
2,3,ips,4,72,56.0,28.0,0.55,1.0,1.0,0.2753325000003599
2,3,ips,4,73,40.0,20.0,0.55,1.0,2.0,0.42894840000008116
2,3,ips,4,74,22.0,14.0,0.55,1.0,2.0,0.49790389999995455
2,3,ips,4,75,89.0,28.0,0.55,1.0,1.0,0.914965200000097
2,3,ips,4,76,32.0,20.0,0.55,1.0,2.0,0.500125399999888
2,3,ips,4,77,25.0,10.0,0.55,1.0,2.0,0.3169683000000987
2,3,ips,4,78,16.0,10.0,0.55,1.0,1.0,0.7691198000001691
2,3,ips,4,79,36.0,28.0,0.55,1.0,1.0,0.5705868999998529
2,3,ips,4,80,45.0,28.0,0.55,1.0,2.0,0.42474399999991874
2,3,ips,5,81,20.0,50.0,1.0,0.55,2.0,0.5709060999997746
2,3,ips,5,82,14.0,44.0,1.0,0.55,2.0,0.30897890000005646
2,3,ips,5,83,20.0,32.0,1.0,0.55,2.0,0.4042971999997462
2,3,ips,5,84,20.0,80.0,1.0,0.55,2.0,0.5388130000001183
2,3,ips,5,85,14.0,35.0,1.0,0.55,2.0,0.2952895000003082
2,3,ips,5,86,28.0,112.0,1.0,0.55,2.0,0.6518078000003555
2,3,ips,5,87,7.0,14.0,1.0,0.55,2.0,0.2278486000000015
2,3,ips,5,88,14.0,35.0,1.0,0.55,2.0,0.4791297999999955
2,3,ips,5,89,20.0,40.0,1.0,0.55,2.0,0.41945460000033563
2,3,ips,5,90,28.0,89.0,1.0,0.55,2.0,0.5081246000000021
2,3,ips,5,91,28.0,7.0,0.55,1.0,1.0,0.6087542000000212
2,3,ips,5,92,71.0,28.0,0.55,1.0,2.0,0.6570169000001442
2,3,ips,5,93,9.0,7.0,0.55,1.0,2.0,0.8156277000002774
2,3,ips,5,94,22.0,7.0,0.55,1.0,1.0,0.6341820000002087
2,3,ips,5,95,12.0,10.0,0.55,1.0,2.0,0.27666270000005966
2,3,ips,5,96,11.0,7.0,0.55,1.0,1.0,0.48136070000018094
2,3,ips,5,97,22.0,14.0,0.55,1.0,2.0,0.5046615999999631
2,3,ips,5,98,28.0,7.0,0.55,1.0,1.0,0.38215489999993224
2,3,ips,5,99,80.0,20.0,0.55,1.0,2.0,0.563048499999752
2,3,ips,5,100,35.0,14.0,0.55,1.0,2.0,0.26426400000036665
2,3,ips,6,101,44.0,14.0,0.55,1.0,1.0,0.6894833000001199
2,3,ips,6,102,32.0,20.0,0.55,1.0,2.0,0.49919020000015735
2,3,ips,6,103,71.0,28.0,0.55,1.0,1.0,0.2126683999999841
2,3,ips,6,104,40.0,10.0,0.55,1.0,1.0,0.6939244000000144
2,3,ips,6,105,18.0,14.0,0.55,1.0,2.0,0.46335899999985486
2,3,ips,6,106,40.0,10.0,0.55,1.0,1.0,0.49125599999980807
2,3,ips,6,107,40.0,20.0,0.55,1.0,1.0,0.6389116999998805
2,3,ips,6,108,12.0,10.0,0.55,1.0,2.0,0.20528990000001102
2,3,ips,6,109,20.0,10.0,0.55,1.0,2.0,0.5688483999997231
2,3,ips,6,110,36.0,28.0,0.55,1.0,2.0,0.6684361000002923
2,3,ips,6,111,14.0,56.0,1.0,0.55,2.0,0.6443718999998964
2,3,ips,6,112,10.0,16.0,1.0,0.55,2.0,0.08916100000035954
2,3,ips,6,113,28.0,112.0,1.0,0.55,1.0,1.0910349999999482
2,3,ips,6,114,7.0,9.0,1.0,0.55,2.0,0.39079899999978807
2,3,ips,6,115,10.0,20.0,1.0,0.55,2.0,0.6629815999999948
2,3,ips,6,116,7.0,17.0,1.0,0.55,2.0,0.506513700000113
2,3,ips,6,117,10.0,31.0,1.0,0.55,1.0,0.35937009999994984
2,3,ips,6,118,28.0,89.0,1.0,0.55,2.0,0.903950800000132
2,3,ips,6,119,14.0,56.0,1.0,0.55,2.0,1.9914125000000809
2,3,ips,6,120,20.0,80.0,1.0,0.55,2.0,0.5547495000001277
3,1,baseline,1,1,10.0,7.0,0.55,1.0,2.0,0.9670970999995916
3,1,baseline,1,2,14.0,7.0,0.55,1.0,2.0,1.0501970999994228
3,1,baseline,1,3,12.0,7.0,0.55,1.0,1.0,1.0017119000003873
3,1,baseline,1,4,26.0,10.0,0.55,1.0,1.0,1.0481378999993325
3,1,baseline,1,5,30.0,20.0,0.55,1.0,2.0,1.1426633999999467
3,1,baseline,1,6,43.0,28.0,0.55,1.0,1.0,2.098896999999866
3,1,baseline,1,7,66.0,28.0,0.55,1.0,2.0,1.5879648999998608
3,1,baseline,1,8,42.0,20.0,0.55,1.0,1.0,1.1076836000010957
3,1,baseline,1,9,36.0,14.0,0.55,1.0,1.0,0.9372740999988309
3,1,baseline,1,10,24.0,14.0,0.55,1.0,1.0,1.1452158000011252
3,1,baseline,1,11,7.0,14.0,1.0,0.55,2.0,1.3611220999991929
3,1,baseline,1,12,10.0,19.0,1.0,0.55,2.0,1.3238856000007218
3,1,baseline,1,13,28.0,59.0,1.0,0.55,1.0,1.1118418999994901
3,1,baseline,1,14,20.0,42.0,1.0,0.55,2.0,1.6795278999998118
3,1,baseline,1,15,14.0,26.0,1.0,0.55,1.0,1.163215500000689
3,1,baseline,1,16,7.0,10.0,1.0,0.55,1.0,1.0118203999991238
3,1,baseline,1,17,10.0,23.0,1.0,0.55,2.0,1.01275109999915
3,1,baseline,1,18,10.0,26.0,1.0,0.55,2.0,1.1345750000000407
3,1,baseline,1,19,10.0,15.0,1.0,0.55,1.0,0.9968876999992062
3,1,baseline,1,20,10.0,26.0,1.0,0.55,2.0,1.0463568000013765
3,1,baseline,2,21,10.0,21.0,1.0,0.55,2.0,1.3962570000003325
3,1,baseline,2,22,7.0,12.0,1.0,0.55,1.0,0.9991059000003588
3,1,baseline,2,23,14.0,36.0,1.0,0.55,2.0,0.9892765000004147
3,1,baseline,2,24,7.0,13.0,1.0,0.55,2.0,1.7206449999994504
3,1,baseline,2,25,10.0,19.0,1.0,0.55,2.0,1.5038433999998517
3,1,baseline,2,26,20.0,34.0,1.0,0.55,1.0,1.1345273999995555
3,1,baseline,2,27,7.0,16.0,1.0,0.55,2.0,1.0434526999997331
3,1,baseline,2,28,20.0,30.0,1.0,0.55,2.0,1.702683800000159
3,1,baseline,2,29,28.0,73.0,1.0,0.55,2.0,1.064795399999639
3,1,baseline,2,30,14.0,26.0,1.0,0.55,1.0,1.4476196999985405
3,1,baseline,2,31,13.0,7.0,0.55,1.0,1.0,1.0664732000005301
3,1,baseline,2,32,66.0,28.0,0.55,1.0,2.0,1.7743389000006573
3,1,baseline,2,33,26.0,10.0,0.55,1.0,1.0,1.1414564999995491
3,1,baseline,2,34,23.0,10.0,0.55,1.0,1.0,1.1252748000005681
3,1,baseline,2,35,48.0,28.0,0.55,1.0,2.0,1.1936081000003185
3,1,baseline,2,36,17.0,10.0,0.55,1.0,1.0,0.959558399999878
3,1,baseline,2,37,16.0,7.0,0.55,1.0,1.0,0.8908744999989722
3,1,baseline,2,38,42.0,20.0,0.55,1.0,1.0,1.7805510999987746
3,1,baseline,2,39,21.0,10.0,0.55,1.0,1.0,1.004994599999975
3,1,baseline,2,40,29.0,14.0,0.55,1.0,1.0,1.0783659999997894
3,1,baseline,3,41,28.0,43.0,1.0,0.55,2.0,1.0359411999998045
3,1,baseline,3,42,28.0,53.0,1.0,0.55,2.0,1.018457899997884
3,1,baseline,3,43,28.0,73.0,1.0,0.55,2.0,0.922195400002245
3,1,baseline,3,44,14.0,21.0,1.0,0.55,1.0,1.0049895999982112
3,1,baseline,3,45,14.0,29.0,1.0,0.55,2.0,1.3947350999987975
3,1,baseline,3,46,28.0,48.0,1.0,0.55,1.0,0.9107723999986774
3,1,baseline,3,47,20.0,34.0,1.0,0.55,1.0,0.966764599998001
3,1,baseline,3,48,28.0,48.0,1.0,0.55,2.0,0.889083699999901
3,1,baseline,3,49,7.0,10.0,1.0,0.55,1.0,0.8488394999985758
3,1,baseline,3,50,7.0,18.0,1.0,0.55,2.0,1.0256778999973335
3,1,baseline,3,51,19.0,10.0,0.55,1.0,1.0,1.0439661000018248
3,1,baseline,3,52,16.0,7.0,0.55,1.0,1.0,1.0557154000016453
3,1,baseline,3,53,26.0,14.0,0.55,1.0,1.0,0.9617675999979838
3,1,baseline,3,54,21.0,14.0,0.55,1.0,2.0,0.9510694999990505
3,1,baseline,3,55,38.0,20.0,0.55,1.0,1.0,0.9554791999980807
3,1,baseline,3,56,48.0,28.0,0.55,1.0,2.0,0.9840444000001298
3,1,baseline,3,57,24.0,14.0,0.55,1.0,1.0,0.934782899999874
3,1,baseline,3,58,73.0,28.0,0.55,1.0,1.0,1.000364499999705
3,1,baseline,3,59,21.0,10.0,0.55,1.0,2.0,1.4856537999985449
3,1,baseline,3,60,73.0,28.0,0.55,1.0,1.0,0.9698781999977655
3,1,baseline,4,61,21.0,14.0,0.55,1.0,2.0,0.9100643999991007
3,1,baseline,4,62,12.0,7.0,0.55,1.0,1.0,1.04296819999945
3,1,baseline,4,63,34.0,20.0,0.55,1.0,1.0,1.0900617000006747
3,1,baseline,4,64,33.0,14.0,0.55,1.0,1.0,1.0953105000008065
3,1,baseline,4,65,30.0,20.0,0.55,1.0,2.0,1.2690141999992335
3,1,baseline,4,66,53.0,28.0,0.55,1.0,1.0,1.078075600002208
3,1,baseline,4,67,15.0,10.0,0.55,1.0,2.0,1.4513956999981303
3,1,baseline,4,68,43.0,28.0,0.55,1.0,2.0,0.9608960999976404
3,1,baseline,4,69,19.0,10.0,0.55,1.0,1.0,1.0228731999995944
3,1,baseline,4,70,36.0,14.0,0.55,1.0,1.0,0.9859107000010852
3,1,baseline,4,71,20.0,47.0,1.0,0.55,2.0,0.9742444000003161
3,1,baseline,4,72,28.0,59.0,1.0,0.55,1.0,1.05521989999761
3,1,baseline,4,73,14.0,33.0,1.0,0.55,2.0,1.4488875999995798
3,1,baseline,4,74,20.0,42.0,1.0,0.55,2.0,1.386578699999518
3,1,baseline,4,75,10.0,17.0,1.0,0.55,1.0,0.9149421000001894
3,1,baseline,4,76,7.0,18.0,1.0,0.55,2.0,0.9846935999994173
3,1,baseline,4,77,7.0,12.0,1.0,0.55,1.0,1.0775291999998444
3,1,baseline,4,78,14.0,29.0,1.0,0.55,1.0,0.9785835999973642
3,1,baseline,4,79,28.0,66.0,1.0,0.55,2.0,0.8716840000015509
3,1,baseline,4,80,20.0,52.0,1.0,0.55,2.0,0.9865432000005967
3,1,baseline,5,81,7.0,16.0,1.0,0.55,2.0,0.9433789000031609
3,1,baseline,5,82,28.0,43.0,1.0,0.55,1.0,0.9293800000014016
3,1,baseline,5,83,20.0,38.0,1.0,0.55,2.0,1.995197399999597
3,1,baseline,5,84,20.0,30.0,1.0,0.55,1.0,0.9334448999979799
3,1,baseline,5,85,28.0,66.0,1.0,0.55,2.0,0.9469632000000416
3,1,baseline,5,86,10.0,17.0,1.0,0.55,1.0,0.8433153000005404
3,1,baseline,5,87,20.0,38.0,1.0,0.55,2.0,1.1198938999987291
3,1,baseline,5,88,14.0,21.0,1.0,0.55,1.0,0.9810926999998344
3,1,baseline,5,89,28.0,53.0,1.0,0.55,2.0,0.9724056999984612
3,1,baseline,5,90,14.0,24.0,1.0,0.55,1.0,0.8918028999978276
3,1,baseline,5,91,52.0,20.0,0.55,1.0,1.0,0.8953942999978608
3,1,baseline,5,92,17.0,10.0,0.55,1.0,2.0,0.983778900001198
3,1,baseline,5,93,13.0,7.0,0.55,1.0,1.0,1.0142946000014774
3,1,baseline,5,94,18.0,7.0,0.55,1.0,1.0,0.853340699999535
3,1,baseline,5,95,53.0,28.0,0.55,1.0,1.0,0.9522982999988017
3,1,baseline,5,96,38.0,20.0,0.55,1.0,2.0,2.0209383000001537
3,1,baseline,5,97,10.0,7.0,0.55,1.0,1.0,1.0210008999965794
3,1,baseline,5,98,14.0,7.0,0.55,1.0,1.0,1.0382217000005767
3,1,baseline,5,99,18.0,7.0,0.55,1.0,1.0,0.9344539999983681
3,1,baseline,5,100,33.0,14.0,0.55,1.0,1.0,0.8829064999990806
3,1,baseline,6,101,10.0,23.0,1.0,0.55,2.0,1.9654936000006273
3,1,baseline,6,102,20.0,52.0,1.0,0.55,2.0,0.945255200000247
3,1,baseline,6,103,14.0,33.0,1.0,0.55,2.0,1.0914088000026823
3,1,baseline,6,104,7.0,13.0,1.0,0.55,1.0,1.0689060999975482
3,1,baseline,6,105,10.0,21.0,1.0,0.55,2.0,0.9122885999968418
3,1,baseline,6,106,10.0,15.0,1.0,0.55,2.0,1.312656400001302
3,1,baseline,6,107,14.0,36.0,1.0,0.55,2.0,0.9558561999983795
3,1,baseline,6,108,20.0,47.0,1.0,0.55,1.0,0.9055240999987433
3,1,baseline,6,109,7.0,14.0,1.0,0.55,1.0,0.9121496000007312
3,1,baseline,6,110,14.0,24.0,1.0,0.55,1.0,0.8354772999991553
3,1,baseline,6,111,52.0,20.0,0.55,1.0,1.0,1.0223108999998374
3,1,baseline,6,112,47.0,20.0,0.55,1.0,1.0,0.8835109000028467
3,1,baseline,6,113,34.0,20.0,0.55,1.0,2.0,0.9453981000006024
3,1,baseline,6,114,29.0,14.0,0.55,1.0,1.0,0.8883685000000412
3,1,baseline,6,115,15.0,10.0,0.55,1.0,1.0,1.7011294000003545
3,1,baseline,6,116,23.0,10.0,0.55,1.0,2.0,1.498677600000434
3,1,baseline,6,117,26.0,14.0,0.55,1.0,1.0,1.8458382999997411
3,1,baseline,6,118,59.0,28.0,0.55,1.0,1.0,0.9823302000004333
3,1,baseline,6,119,47.0,20.0,0.55,1.0,1.0,0.9197261999979673
3,1,baseline,6,120,59.0,28.0,0.55,1.0,1.0,1.084815099999048
3,2,vertex,1,1,59.0,28.0,0.55,1.0,1.0,1.072020699999939
3,2,vertex,1,2,24.0,14.0,0.55,1.0,2.0,1.0959337999999974
3,2,vertex,1,3,30.0,20.0,0.55,1.0,2.0,1.1994195999998212
3,2,vertex,1,4,12.0,7.0,0.55,1.0,1.0,0.9619443000001411
3,2,vertex,1,5,26.0,14.0,0.55,1.0,1.0,1.4637824999999793
3,2,vertex,1,6,34.0,20.0,0.55,1.0,1.0,1.061300600000095
3,2,vertex,1,7,47.0,20.0,0.55,1.0,1.0,1.0598446999999993
3,2,vertex,1,8,26.0,10.0,0.55,1.0,1.0,0.9947614000000016
3,2,vertex,1,9,17.0,10.0,0.55,1.0,1.0,1.8366581000000224
3,2,vertex,1,10,12.0,7.0,0.55,1.0,2.0,1.5883218999999258
3,2,vertex,1,11,10.0,26.0,1.0,0.55,2.0,0.9411580000000868
3,2,vertex,1,12,20.0,47.0,1.0,0.55,2.0,1.0157961999998406
3,2,vertex,1,13,10.0,15.0,1.0,0.55,1.0,1.0657442000001538
3,2,vertex,1,14,7.0,13.0,1.0,0.55,1.0,1.2642028000000778
3,2,vertex,1,15,7.0,18.0,1.0,0.55,2.0,1.0507993999999599
3,2,vertex,1,16,10.0,19.0,1.0,0.55,1.0,1.1904915000000074
3,2,vertex,1,17,28.0,66.0,1.0,0.55,2.0,0.9557540000000699
3,2,vertex,1,18,28.0,59.0,1.0,0.55,1.0,1.4523816000000807
3,2,vertex,1,19,20.0,47.0,1.0,0.55,2.0,1.0225673999998435
3,2,vertex,1,20,7.0,12.0,1.0,0.55,1.0,1.6936400999998114
3,2,vertex,2,21,10.0,21.0,1.0,0.55,2.0,1.0121564999999464
3,2,vertex,2,22,14.0,24.0,1.0,0.55,1.0,1.4473354000001564
3,2,vertex,2,23,14.0,29.0,1.0,0.55,2.0,1.0518667000001187
3,2,vertex,2,24,14.0,24.0,1.0,0.55,2.0,0.9606684999998834
3,2,vertex,2,25,20.0,52.0,1.0,0.55,2.0,0.937833399999846
3,2,vertex,2,26,14.0,26.0,1.0,0.55,2.0,1.3783755999997993
3,2,vertex,2,27,28.0,59.0,1.0,0.55,2.0,0.9255194000002405
3,2,vertex,2,28,7.0,16.0,1.0,0.55,1.0,1.0986699000000186
3,2,vertex,2,29,28.0,43.0,1.0,0.55,1.0,0.9734729000001607
3,2,vertex,2,30,20.0,34.0,1.0,0.55,1.0,0.9824677999999949
3,2,vertex,2,31,16.0,7.0,0.55,1.0,1.0,1.0708123999997952
3,2,vertex,2,32,13.0,7.0,0.55,1.0,2.0,1.2095903000000021
3,2,vertex,2,33,17.0,10.0,0.55,1.0,2.0,1.0988989000001936
3,2,vertex,2,34,38.0,20.0,0.55,1.0,1.0,1.2895695000002547
3,2,vertex,2,35,33.0,14.0,0.55,1.0,1.0,0.9529079999997521
3,2,vertex,2,36,29.0,14.0,0.55,1.0,1.0,1.088389700000306
3,2,vertex,2,37,30.0,20.0,0.55,1.0,2.0,0.9083748000002743
3,2,vertex,2,38,29.0,14.0,0.55,1.0,1.0,1.0387476000000788
3,2,vertex,2,39,16.0,7.0,0.55,1.0,1.0,0.9927594000000681
3,2,vertex,2,40,18.0,7.0,0.55,1.0,1.0,0.9837376000000404
3,2,vertex,3,41,23.0,10.0,0.55,1.0,1.0,0.8902400000001762
3,2,vertex,3,42,21.0,14.0,0.55,1.0,2.0,0.9236839000000074
3,2,vertex,3,43,14.0,7.0,0.55,1.0,1.0,0.9562175000000934
3,2,vertex,3,44,21.0,10.0,0.55,1.0,1.0,1.12660169999981
3,2,vertex,3,45,24.0,14.0,0.55,1.0,2.0,0.9829460000000836
3,2,vertex,3,46,21.0,14.0,0.55,1.0,2.0,0.9634237000000354
3,2,vertex,3,47,36.0,14.0,0.55,1.0,1.0,1.0505106000000382
3,2,vertex,3,48,66.0,28.0,0.55,1.0,1.0,0.8494048999996409
3,2,vertex,3,49,26.0,10.0,0.55,1.0,1.0,0.955060499999945
3,2,vertex,3,50,19.0,10.0,0.55,1.0,2.0,0.8891226000000643
3,2,vertex,3,51,7.0,16.0,1.0,0.55,2.0,0.9991495999997824
3,2,vertex,3,52,14.0,36.0,1.0,0.55,2.0,1.0918560999998306
3,2,vertex,3,53,20.0,42.0,1.0,0.55,1.0,1.2164270999996631
3,2,vertex,3,54,10.0,26.0,1.0,0.55,2.0,0.9975270999998429
3,2,vertex,3,55,14.0,21.0,1.0,0.55,1.0,0.9392933999998547
3,2,vertex,3,56,7.0,14.0,1.0,0.55,1.0,1.108648599999924
3,2,vertex,3,57,7.0,10.0,1.0,0.55,1.0,0.8976118999999017
3,2,vertex,3,58,7.0,10.0,1.0,0.55,1.0,0.7916018999999324
3,2,vertex,3,59,28.0,43.0,1.0,0.55,2.0,0.8026353999998719
3,2,vertex,3,60,28.0,48.0,1.0,0.55,1.0,0.9641327999996747
3,2,vertex,4,61,14.0,33.0,1.0,0.55,2.0,0.9845166000000134
3,2,vertex,4,62,28.0,53.0,1.0,0.55,1.0,0.880109000000175
3,2,vertex,4,63,10.0,19.0,1.0,0.55,1.0,0.9380284999997457
3,2,vertex,4,64,28.0,53.0,1.0,0.55,2.0,0.9208246000002873
3,2,vertex,4,65,14.0,36.0,1.0,0.55,2.0,0.9400878000001427
3,2,vertex,4,66,28.0,66.0,1.0,0.55,2.0,1.0805976999999984
3,2,vertex,4,67,28.0,48.0,1.0,0.55,1.0,1.0630744000000192
3,2,vertex,4,68,10.0,23.0,1.0,0.55,1.0,0.9637869999996838
3,2,vertex,4,69,10.0,17.0,1.0,0.55,1.0,0.9929530999997951
3,2,vertex,4,70,7.0,13.0,1.0,0.55,1.0,1.1434755000000223
3,2,vertex,4,71,33.0,14.0,0.55,1.0,1.0,0.9165655000001891
3,2,vertex,4,72,10.0,7.0,0.55,1.0,1.0,0.8515081999998984
3,2,vertex,4,73,36.0,14.0,0.55,1.0,1.0,1.1585910999997395
3,2,vertex,4,74,43.0,28.0,0.55,1.0,2.0,0.8900991000000431
3,2,vertex,4,75,19.0,10.0,0.55,1.0,1.0,0.947761899999989
3,2,vertex,4,76,48.0,28.0,0.55,1.0,1.0,0.9038997000002382
3,2,vertex,4,77,13.0,7.0,0.55,1.0,1.0,0.9545404999998937
3,2,vertex,4,78,15.0,10.0,0.55,1.0,2.0,1.015088999999989
3,2,vertex,4,79,23.0,10.0,0.55,1.0,1.0,0.8755944999998064
3,2,vertex,4,80,47.0,20.0,0.55,1.0,1.0,0.921286599999803
3,2,vertex,5,81,15.0,10.0,0.55,1.0,1.0,0.960907799999859
3,2,vertex,5,82,42.0,20.0,0.55,1.0,1.0,1.0728926000001593
3,2,vertex,5,83,52.0,20.0,0.55,1.0,1.0,0.851809300000248
3,2,vertex,5,84,18.0,7.0,0.55,1.0,1.0,0.8590509000000566
3,2,vertex,5,85,52.0,20.0,0.55,1.0,1.0,0.9953746999999709
3,2,vertex,5,86,73.0,28.0,0.55,1.0,1.0,0.9855635999997645
3,2,vertex,5,87,42.0,20.0,0.55,1.0,2.0,0.9404509999999675
3,2,vertex,5,88,66.0,28.0,0.55,1.0,1.0,1.4880034000002524
3,2,vertex,5,89,26.0,14.0,0.55,1.0,2.0,1.3428546000000097
3,2,vertex,5,90,59.0,28.0,0.55,1.0,1.0,1.5831139000001713
3,2,vertex,5,91,20.0,34.0,1.0,0.55,2.0,1.0632845999998608
3,2,vertex,5,92,7.0,12.0,1.0,0.55,2.0,1.5502516000001378
3,2,vertex,5,93,20.0,38.0,1.0,0.55,2.0,0.9537735000004091
3,2,vertex,5,94,10.0,17.0,1.0,0.55,2.0,1.092301899999768
3,2,vertex,5,95,14.0,29.0,1.0,0.55,2.0,1.2779485999999736
3,2,vertex,5,96,14.0,33.0,1.0,0.55,1.0,0.9148546000000977
3,2,vertex,5,97,20.0,30.0,1.0,0.55,1.0,1.3425410999998917
3,2,vertex,5,98,7.0,18.0,1.0,0.55,2.0,1.0461272000002282
3,2,vertex,5,99,20.0,30.0,1.0,0.55,1.0,1.049501699999837
3,2,vertex,5,100,10.0,15.0,1.0,0.55,1.0,1.0942197999997916
3,2,vertex,6,101,53.0,28.0,0.55,1.0,2.0,1.3938066000000653
3,2,vertex,6,102,73.0,28.0,0.55,1.0,1.0,0.9682924000003368
3,2,vertex,6,103,53.0,28.0,0.55,1.0,2.0,1.0024168999998437
3,2,vertex,6,104,34.0,20.0,0.55,1.0,2.0,0.875254799999766
3,2,vertex,6,105,43.0,28.0,0.55,1.0,2.0,0.9885053999996671
3,2,vertex,6,106,14.0,7.0,0.55,1.0,1.0,0.9024674999995739
3,2,vertex,6,107,10.0,7.0,0.55,1.0,2.0,0.8820078999997207
3,2,vertex,6,108,48.0,28.0,0.55,1.0,1.0,0.9602985000001212
3,2,vertex,6,109,38.0,20.0,0.55,1.0,2.0,1.3868774999996276
3,2,vertex,6,110,21.0,10.0,0.55,1.0,1.0,1.070450300000175
3,2,vertex,6,111,20.0,52.0,1.0,0.55,2.0,0.8454814000001534
3,2,vertex,6,112,10.0,23.0,1.0,0.55,2.0,1.336135800000278
3,2,vertex,6,113,20.0,38.0,1.0,0.55,2.0,0.8717010999998536
3,2,vertex,6,114,10.0,21.0,1.0,0.55,1.0,1.067957999999635
3,2,vertex,6,115,28.0,73.0,1.0,0.55,2.0,0.8208878000000936
3,2,vertex,6,116,20.0,42.0,1.0,0.55,2.0,1.0594427999999425
3,2,vertex,6,117,28.0,73.0,1.0,0.55,2.0,0.8354749000000083
3,2,vertex,6,118,7.0,14.0,1.0,0.55,1.0,0.8825942000003124
3,2,vertex,6,119,14.0,21.0,1.0,0.55,1.0,1.249144499999602
3,2,vertex,6,120,14.0,26.0,1.0,0.55,1.0,0.9763903000002756
3,3,ips,1,1,43.0,28.0,0.55,1.0,1.0,0.949217100000169
3,3,ips,1,2,21.0,10.0,0.55,1.0,1.0,0.8494868000002356
3,3,ips,1,3,73.0,28.0,0.55,1.0,1.0,0.8476550000000245
3,3,ips,1,4,47.0,20.0,0.55,1.0,1.0,0.8473823999997876
3,3,ips,1,5,48.0,28.0,0.55,1.0,2.0,0.9341562999998132
3,3,ips,1,6,34.0,20.0,0.55,1.0,1.0,0.8387656999998399
3,3,ips,1,7,15.0,10.0,0.55,1.0,1.0,0.9808010000001559
3,3,ips,1,8,29.0,14.0,0.55,1.0,2.0,0.9450120000001334
3,3,ips,1,9,59.0,28.0,0.55,1.0,2.0,0.9661737000001267
3,3,ips,1,10,17.0,10.0,0.55,1.0,1.0,0.8531993999999656
3,3,ips,1,11,20.0,42.0,1.0,0.55,2.0,0.94035990000026
3,3,ips,1,12,20.0,42.0,1.0,0.55,2.0,0.8882776999998896
3,3,ips,1,13,7.0,14.0,1.0,0.55,2.0,1.467716399999972
3,3,ips,1,14,28.0,66.0,1.0,0.55,2.0,0.8573645999999542
3,3,ips,1,15,28.0,59.0,1.0,0.55,2.0,1.0488894000000357
3,3,ips,1,16,28.0,73.0,1.0,0.55,2.0,0.8691193999997893
3,3,ips,1,17,14.0,36.0,1.0,0.55,1.0,1.5237272999998481
3,3,ips,1,18,20.0,30.0,1.0,0.55,1.0,0.9076305000003231
3,3,ips,1,19,10.0,15.0,1.0,0.55,1.0,0.9758424999999988
3,3,ips,1,20,14.0,21.0,1.0,0.55,1.0,0.9712960999999609
3,3,ips,2,21,28.0,48.0,1.0,0.55,1.0,1.2486829999997937
3,3,ips,2,22,10.0,17.0,1.0,0.55,1.0,1.0047616000001582
3,3,ips,2,23,10.0,17.0,1.0,0.55,1.0,0.9704508999998325
3,3,ips,2,24,28.0,43.0,1.0,0.55,2.0,0.9380399000001347
3,3,ips,2,25,20.0,38.0,1.0,0.55,2.0,0.8800642000001062
3,3,ips,2,26,10.0,23.0,1.0,0.55,2.0,0.9707496000001044
3,3,ips,2,27,10.0,19.0,1.0,0.55,1.0,0.8624125000001186
3,3,ips,2,28,10.0,21.0,1.0,0.55,2.0,0.8381783999998191
3,3,ips,2,29,28.0,53.0,1.0,0.55,2.0,0.8937873999998374
3,3,ips,2,30,20.0,38.0,1.0,0.55,1.0,1.4409777999999278
3,3,ips,2,31,33.0,14.0,0.55,1.0,1.0,0.932774500000022
3,3,ips,2,32,36.0,14.0,0.55,1.0,1.0,1.0092869999998868
3,3,ips,2,33,18.0,7.0,0.55,1.0,1.0,0.9616363000000945
3,3,ips,2,34,52.0,20.0,0.55,1.0,1.0,0.970870099999928
3,3,ips,2,35,53.0,28.0,0.55,1.0,1.0,0.959301700000168
3,3,ips,2,36,52.0,20.0,0.55,1.0,1.0,0.9674632000001111
3,3,ips,2,37,10.0,7.0,0.55,1.0,2.0,0.7919167999998535
3,3,ips,2,38,38.0,20.0,0.55,1.0,2.0,1.0407215999998698
3,3,ips,2,39,15.0,10.0,0.55,1.0,1.0,1.1279592999999295
3,3,ips,2,40,21.0,14.0,0.55,1.0,2.0,0.8602344000000812
3,3,ips,3,41,18.0,7.0,0.55,1.0,1.0,0.9481980999998996
3,3,ips,3,42,16.0,7.0,0.55,1.0,1.0,0.8997491000000082
3,3,ips,3,43,19.0,10.0,0.55,1.0,2.0,1.0078271000002061
3,3,ips,3,44,29.0,14.0,0.55,1.0,2.0,0.9448259000000689
3,3,ips,3,45,14.0,7.0,0.55,1.0,1.0,0.8855082999998416
3,3,ips,3,46,34.0,20.0,0.55,1.0,2.0,0.8196966000000145
3,3,ips,3,47,23.0,10.0,0.55,1.0,1.0,0.9319058999999186
3,3,ips,3,48,12.0,7.0,0.55,1.0,2.0,0.8401690000000599
3,3,ips,3,49,21.0,10.0,0.55,1.0,1.0,0.9520117000001846
3,3,ips,3,50,19.0,10.0,0.55,1.0,1.0,1.0729236000001947
3,3,ips,3,51,14.0,24.0,1.0,0.55,2.0,1.039470200000295
3,3,ips,3,52,7.0,10.0,1.0,0.55,1.0,0.8972713999996813
3,3,ips,3,53,14.0,33.0,1.0,0.55,2.0,0.8319096999998408
3,3,ips,3,54,28.0,59.0,1.0,0.55,1.0,1.3412478000000476
3,3,ips,3,55,20.0,34.0,1.0,0.55,2.0,0.9914009999997404
3,3,ips,3,56,7.0,13.0,1.0,0.55,2.0,1.220072799999798
3,3,ips,3,57,10.0,23.0,1.0,0.55,2.0,0.8596010999999635
3,3,ips,3,58,28.0,53.0,1.0,0.55,2.0,0.8271247999996376
3,3,ips,3,59,20.0,30.0,1.0,0.55,1.0,0.9064001999999505
3,3,ips,3,60,14.0,21.0,1.0,0.55,1.0,0.9274677999997039
3,3,ips,4,61,10.0,21.0,1.0,0.55,2.0,0.9276414000000841
3,3,ips,4,62,20.0,47.0,1.0,0.55,2.0,0.8288389999997889
3,3,ips,4,63,20.0,52.0,1.0,0.55,2.0,0.9131312000004073
3,3,ips,4,64,7.0,13.0,1.0,0.55,2.0,1.4313973000002989
3,3,ips,4,65,10.0,26.0,1.0,0.55,2.0,0.8086739000000165
3,3,ips,4,66,20.0,47.0,1.0,0.55,2.0,0.8392045000000508
3,3,ips,4,67,28.0,73.0,1.0,0.55,1.0,1.3119441999997434
3,3,ips,4,68,7.0,16.0,1.0,0.55,2.0,1.626049100000273
3,3,ips,4,69,28.0,48.0,1.0,0.55,2.0,0.791870999999901
3,3,ips,4,70,14.0,24.0,1.0,0.55,1.0,0.9416056000000026
3,3,ips,4,71,12.0,7.0,0.55,1.0,2.0,1.1190256000000147
3,3,ips,4,72,30.0,20.0,0.55,1.0,2.0,0.8742999999999483
3,3,ips,4,73,53.0,28.0,0.55,1.0,2.0,0.8589401999998074
3,3,ips,4,74,59.0,28.0,0.55,1.0,1.0,0.9853588999999658
3,3,ips,4,75,26.0,14.0,0.55,1.0,2.0,1.1280777000001763
3,3,ips,4,76,26.0,14.0,0.55,1.0,2.0,1.0823067999999694
3,3,ips,4,77,26.0,10.0,0.55,1.0,1.0,0.9063398999996366
3,3,ips,4,78,47.0,20.0,0.55,1.0,1.0,1.3279554000000644
3,3,ips,4,79,30.0,20.0,0.55,1.0,2.0,0.9467491000000336
3,3,ips,4,80,23.0,10.0,0.55,1.0,1.0,0.783051400000204
3,3,ips,5,81,16.0,7.0,0.55,1.0,1.0,0.8931786999996802
3,3,ips,5,82,13.0,7.0,0.55,1.0,1.0,1.3628513000003295
3,3,ips,5,83,24.0,14.0,0.55,1.0,2.0,0.8332533000002513
3,3,ips,5,84,66.0,28.0,0.55,1.0,1.0,0.9486555000003136
3,3,ips,5,85,17.0,10.0,0.55,1.0,1.0,0.9191142999997908
3,3,ips,5,86,10.0,7.0,0.55,1.0,2.0,1.0237847000007605
3,3,ips,5,87,14.0,7.0,0.55,1.0,1.0,1.0221068999999403
3,3,ips,5,88,13.0,7.0,0.55,1.0,1.0,0.891427499999736
3,3,ips,5,89,43.0,28.0,0.55,1.0,2.0,0.8504071999996086
3,3,ips,5,90,26.0,10.0,0.55,1.0,1.0,0.8371877999998105
3,3,ips,5,91,28.0,43.0,1.0,0.55,1.0,0.822479999999814
3,3,ips,5,92,7.0,18.0,1.0,0.55,2.0,0.7871284000002277
3,3,ips,5,93,14.0,29.0,1.0,0.55,2.0,0.8117708999998285
3,3,ips,5,94,20.0,34.0,1.0,0.55,2.0,0.8342213000005074
3,3,ips,5,95,10.0,26.0,1.0,0.55,1.0,0.9737479999993468
3,3,ips,5,96,7.0,14.0,1.0,0.55,2.0,0.8075079000000471
3,3,ips,5,97,14.0,26.0,1.0,0.55,2.0,0.8384645000005548
3,3,ips,5,98,28.0,66.0,1.0,0.55,2.0,0.7662381000000096
3,3,ips,5,99,7.0,12.0,1.0,0.55,1.0,0.8440307999999277
3,3,ips,5,100,7.0,16.0,1.0,0.55,2.0,1.3065937000001213
3,3,ips,6,101,20.0,52.0,1.0,0.55,2.0,0.7121074000006047
3,3,ips,6,102,14.0,33.0,1.0,0.55,2.0,1.5496667999996134
3,3,ips,6,103,14.0,36.0,1.0,0.55,2.0,0.9821096999994552
3,3,ips,6,104,7.0,10.0,1.0,0.55,1.0,0.9562633999994432
3,3,ips,6,105,10.0,19.0,1.0,0.55,1.0,0.9213816999999835
3,3,ips,6,106,14.0,29.0,1.0,0.55,2.0,0.7910058999996181
3,3,ips,6,107,7.0,12.0,1.0,0.55,1.0,0.8310527999992843
3,3,ips,6,108,10.0,15.0,1.0,0.55,1.0,0.9157930000001215
3,3,ips,6,109,7.0,18.0,1.0,0.55,2.0,0.7568903999999748
3,3,ips,6,110,14.0,26.0,1.0,0.55,2.0,0.9181526000002123
3,3,ips,6,111,21.0,14.0,0.55,1.0,1.0,0.98518520000016
3,3,ips,6,112,24.0,14.0,0.55,1.0,2.0,0.8372691999993549
3,3,ips,6,113,42.0,20.0,0.55,1.0,1.0,0.9465878000001169
3,3,ips,6,114,33.0,14.0,0.55,1.0,1.0,1.0919674999994982
3,3,ips,6,115,38.0,20.0,0.55,1.0,1.0,0.8604535000004034
3,3,ips,6,116,48.0,28.0,0.55,1.0,2.0,0.8359495999993101
3,3,ips,6,117,73.0,28.0,0.55,1.0,1.0,0.8550943999998992
3,3,ips,6,118,66.0,28.0,0.55,1.0,1.0,1.0328527000001486
3,3,ips,6,119,42.0,20.0,0.55,1.0,1.0,0.8594776999997862
3,3,ips,6,120,36.0,14.0,0.55,1.0,1.0,0.8579454999999143
4,1,baseline,1,1,20.0,41.0,1.0,0.55,1.0,1.5222287000005963
4,1,baseline,1,2,14.0,39.0,1.0,0.55,2.0,1.8241344000007302
4,1,baseline,1,3,7.0,14.0,1.0,0.55,1.0,2.0496911000000253
4,1,baseline,1,4,20.0,48.0,1.0,0.55,1.0,1.3985604999998316
4,1,baseline,1,5,7.0,19.0,1.0,0.55,1.0,1.9088380999992296
4,1,baseline,1,6,20.0,48.0,1.0,0.55,2.0,0.8195494000001418
4,1,baseline,1,7,28.0,43.0,1.0,0.55,2.0,1.3702240000002348
4,1,baseline,1,8,14.0,21.0,1.0,0.55,1.0,0.7955905999997697
4,1,baseline,1,9,10.0,24.0,1.0,0.55,2.0,0.9896858000001885
4,1,baseline,1,10,28.0,78.0,1.0,0.55,2.0,0.836614499999996
4,1,baseline,1,11,15.0,10.0,0.55,1.0,1.0,3.939088699999985
4,1,baseline,1,12,67.0,28.0,0.55,1.0,2.0,0.9652794000003553
4,1,baseline,1,13,12.0,7.0,0.55,1.0,1.0,0.9963324000000569
4,1,baseline,1,14,45.0,14.0,0.55,1.0,1.0,0.9691990999999973
4,1,baseline,1,15,22.0,7.0,0.55,1.0,1.0,0.9976349999997183
4,1,baseline,1,16,10.0,7.0,0.55,1.0,1.0,0.9826008000000002
4,1,baseline,1,17,45.0,14.0,0.55,1.0,1.0,0.8686288999997487
4,1,baseline,1,18,28.0,10.0,0.55,1.0,2.0,1.8980127000004359
4,1,baseline,1,19,16.0,7.0,0.55,1.0,1.0,1.1794846000002508
4,1,baseline,1,20,16.0,7.0,0.55,1.0,1.0,1.1513299000006896
4,1,baseline,2,21,29.0,14.0,0.55,1.0,2.0,1.4578285000006872
4,1,baseline,2,22,36.0,20.0,0.55,1.0,2.0,1.5240820999997595
4,1,baseline,2,23,14.0,7.0,0.55,1.0,2.0,0.8714160999998057
4,1,baseline,2,24,12.0,7.0,0.55,1.0,1.0,1.413826699999845
4,1,baseline,2,25,67.0,28.0,0.55,1.0,2.0,0.9921236999998797
4,1,baseline,2,26,20.0,10.0,0.55,1.0,2.0,1.5866704999998689
4,1,baseline,2,27,33.0,14.0,0.55,1.0,2.0,0.8669368000000759
4,1,baseline,2,28,25.0,14.0,0.55,1.0,2.0,1.694731300000086
4,1,baseline,2,29,48.0,20.0,0.55,1.0,2.0,1.8617744000002858
4,1,baseline,2,30,10.0,7.0,0.55,1.0,1.0,1.996066400000018
4,1,baseline,2,31,10.0,20.0,1.0,0.55,1.0,0.9291406000002098
4,1,baseline,2,32,28.0,90.0,1.0,0.55,1.0,1.8975338999998996
4,1,baseline,2,33,28.0,78.0,1.0,0.55,1.0,1.8710752000006323
4,1,baseline,2,34,28.0,58.0,1.0,0.55,1.0,2.498748000000006
4,1,baseline,2,35,14.0,33.0,1.0,0.55,1.0,1.2418372999991334
4,1,baseline,2,36,14.0,33.0,1.0,0.55,2.0,0.96093430000019
4,1,baseline,2,37,14.0,45.0,1.0,0.55,2.0,1.1884839000003922
4,1,baseline,2,38,28.0,67.0,1.0,0.55,2.0,1.2080946000005497
4,1,baseline,2,39,7.0,22.0,1.0,0.55,2.0,1.40642409999964
4,1,baseline,2,40,20.0,36.0,1.0,0.55,1.0,0.9169681999991894
4,1,baseline,3,41,14.0,39.0,1.0,0.55,2.0,1.0275362000002133
4,1,baseline,3,42,7.0,16.0,1.0,0.55,1.0,1.983915099999649
4,1,baseline,3,43,10.0,28.0,1.0,0.55,2.0,1.7000012999997196
4,1,baseline,3,44,7.0,22.0,1.0,0.55,2.0,0.6254505999995672
4,1,baseline,3,45,14.0,25.0,1.0,0.55,1.0,1.9814783000001626
4,1,baseline,3,46,20.0,31.0,1.0,0.55,1.0,0.7994678000004427
4,1,baseline,3,47,28.0,67.0,1.0,0.55,2.0,0.9045533999996991
4,1,baseline,3,48,28.0,90.0,1.0,0.55,1.0,0.41217169999978864
4,1,baseline,3,49,7.0,19.0,1.0,0.55,,
4,1,baseline,3,50,14.0,25.0,1.0,0.55,1.0,1.1804954999998074
4,1,baseline,3,51,33.0,14.0,0.55,1.0,2.0,0.6042402000002483
4,1,baseline,3,52,56.0,20.0,0.55,1.0,2.0,1.1272230000004129
4,1,baseline,3,53,32.0,10.0,0.55,1.0,2.0,1.746682799999661
4,1,baseline,3,54,24.0,10.0,0.55,1.0,2.0,2.2908135999996375
4,1,baseline,3,55,50.0,28.0,0.55,1.0,2.0,1.2838026999997965
4,1,baseline,3,56,28.0,10.0,0.55,1.0,1.0,0.8585580999997546
4,1,baseline,3,57,15.0,10.0,0.55,1.0,2.0,1.0128450000002545
4,1,baseline,3,58,41.0,20.0,0.55,1.0,2.0,1.2753585999998904
4,1,baseline,3,59,41.0,20.0,0.55,1.0,2.0,1.1511402000005546
4,1,baseline,3,60,32.0,10.0,0.55,1.0,1.0,1.3111970000000497
4,1,baseline,4,61,10.0,15.0,1.0,0.55,1.0,1.02293870000085
4,1,baseline,4,62,20.0,36.0,1.0,0.55,1.0,1.3716375000003609
4,1,baseline,4,63,28.0,50.0,1.0,0.55,1.0,0.8962879999999132
4,1,baseline,4,64,20.0,56.0,1.0,0.55,1.0,2.0698961999996754
4,1,baseline,4,65,28.0,58.0,1.0,0.55,1.0,1.4393543999995018
4,1,baseline,4,66,10.0,15.0,1.0,0.55,1.0,1.6791543999998169
4,1,baseline,4,67,10.0,32.0,1.0,0.55,2.0,0.9065780000000814
4,1,baseline,4,68,14.0,21.0,1.0,0.55,1.0,0.9755280999997922
4,1,baseline,4,69,14.0,45.0,1.0,0.55,2.0,0.6961802999994688
4,1,baseline,4,70,7.0,14.0,1.0,0.55,2.0,1.9780590000000302
4,1,baseline,4,71,31.0,20.0,0.55,1.0,1.0,1.5589542999996695
4,1,baseline,4,72,29.0,14.0,0.55,1.0,2.0,0.7672913999995217
4,1,baseline,4,73,21.0,14.0,0.55,1.0,2.0,0.6529924999995274
4,1,baseline,4,74,22.0,7.0,0.55,1.0,1.0,0.6631458000001373
4,1,baseline,4,75,36.0,20.0,0.55,1.0,2.0,1.6807476000004158
4,1,baseline,4,76,25.0,14.0,0.55,1.0,2.0,0.5156169000001398
4,1,baseline,4,77,21.0,14.0,0.55,1.0,1.0,1.3081005000003358
4,1,baseline,4,78,43.0,28.0,0.55,1.0,2.0,0.5105223000000478
4,1,baseline,4,79,14.0,7.0,0.55,1.0,1.0,0.9477818000004845
4,1,baseline,4,80,48.0,20.0,0.55,1.0,2.0,0.7162236000003759
4,1,baseline,5,81,56.0,20.0,0.55,1.0,2.0,0.6791013999991264
4,1,baseline,5,82,64.0,20.0,0.55,1.0,2.0,1.2726748999994015
4,1,baseline,5,83,19.0,7.0,0.55,1.0,1.0,0.9838025999997626
4,1,baseline,5,84,39.0,14.0,0.55,1.0,2.0,0.8243963000004584
4,1,baseline,5,85,58.0,28.0,0.55,1.0,2.0,0.7560927000003943
4,1,baseline,5,86,64.0,20.0,0.55,1.0,2.0,1.5148195000001579
4,1,baseline,5,87,18.0,10.0,0.55,1.0,2.0,1.8475373999999647
4,1,baseline,5,88,58.0,28.0,0.55,1.0,2.0,0.743786799999711
4,1,baseline,5,89,24.0,10.0,0.55,1.0,1.0,1.2799419000002672
4,1,baseline,5,90,31.0,20.0,0.55,1.0,2.0,0.8810112000001311
4,1,baseline,5,91,10.0,32.0,1.0,0.55,2.0,1.3011849999992933
4,1,baseline,5,92,20.0,64.0,1.0,0.55,2.0,0.9529005999992819
4,1,baseline,5,93,10.0,20.0,1.0,0.55,1.0,0.6487215999996181
4,1,baseline,5,94,7.0,10.0,1.0,0.55,1.0,1.8793202999995628
4,1,baseline,5,95,28.0,43.0,1.0,0.55,1.0,0.6034377999994831
4,1,baseline,5,96,14.0,29.0,1.0,0.55,2.0,0.8532622000002448
4,1,baseline,5,97,14.0,29.0,1.0,0.55,1.0,1.167524599999524
4,1,baseline,5,98,10.0,28.0,1.0,0.55,1.0,4.583861699999943
4,1,baseline,5,99,7.0,12.0,1.0,0.55,1.0,1.2046367000002647
4,1,baseline,5,100,28.0,50.0,1.0,0.55,1.0,0.6373388000001796
4,1,baseline,6,101,20.0,56.0,1.0,0.55,2.0,0.7556673999997656
4,1,baseline,6,102,20.0,31.0,1.0,0.55,1.0,0.6565695999997843
4,1,baseline,6,103,10.0,18.0,1.0,0.55,1.0,1.7186633000001166
4,1,baseline,6,104,10.0,18.0,1.0,0.55,2.0,0.9322602000002007
4,1,baseline,6,105,7.0,12.0,1.0,0.55,1.0,1.479192300000264
4,1,baseline,6,106,7.0,10.0,1.0,0.55,1.0,0.6778309000000746
4,1,baseline,6,107,20.0,64.0,1.0,0.55,2.0,2.0535375999997996
4,1,baseline,6,108,10.0,24.0,1.0,0.55,1.0,0.7559730000002816
4,1,baseline,6,109,20.0,41.0,1.0,0.55,1.0,2.653047499999957
4,1,baseline,6,110,7.0,16.0,1.0,0.55,2.0,1.1740115000002334
4,1,baseline,6,111,20.0,10.0,0.55,1.0,2.0,1.5080699999998615
4,1,baseline,6,112,18.0,10.0,0.55,1.0,2.0,1.4083048000001952
4,1,baseline,6,113,39.0,14.0,0.55,1.0,2.0,1.7446294999999168
4,1,baseline,6,114,19.0,7.0,0.55,1.0,1.0,2.004961599999689
4,1,baseline,6,115,78.0,28.0,0.55,1.0,2.0,1.0794977999994728
4,1,baseline,6,116,90.0,28.0,0.55,1.0,1.0,0.8263371000002735
4,1,baseline,6,117,43.0,28.0,0.55,1.0,2.0,1.1461058000004414
4,1,baseline,6,118,78.0,28.0,0.55,1.0,2.0,1.2655934999992837
4,1,baseline,6,119,90.0,28.0,0.55,1.0,2.0,0.9869369999996707
4,1,baseline,6,120,50.0,28.0,0.55,1.0,1.0,1.8886063999998441
4,2,ips,1,1,7.0,12.0,1.0,0.55,2.0,1.4892884999999296
4,2,ips,1,2,7.0,10.0,1.0,0.55,1.0,1.5939760999999635
4,2,ips,1,3,7.0,14.0,1.0,0.55,2.0,0.9034225999998853
4,2,ips,1,4,14.0,45.0,1.0,0.55,2.0,2.4874394999997094
4,2,ips,1,5,14.0,21.0,1.0,0.55,1.0,0.905874699999913
4,2,ips,1,6,14.0,25.0,1.0,0.55,2.0,1.8318251999998978
4,2,ips,1,7,14.0,45.0,1.0,0.55,2.0,0.8537279000002229
4,2,ips,1,8,7.0,19.0,1.0,0.55,2.0,1.4501346000001973
4,2,ips,1,9,28.0,67.0,1.0,0.55,2.0,1.8307503000000622
4,2,ips,1,10,7.0,12.0,1.0,0.55,1.0,1.209023200000047
4,2,ips,1,11,31.0,20.0,0.55,1.0,2.0,1.377007500000218
4,2,ips,1,12,39.0,14.0,0.55,1.0,2.0,1.555326100000002
4,2,ips,1,13,16.0,7.0,0.55,1.0,1.0,0.9430053999999188
4,2,ips,1,14,15.0,10.0,0.55,1.0,2.0,1.3490827999998771
4,2,ips,1,15,64.0,20.0,0.55,1.0,2.0,0.6924934999997561
4,2,ips,1,16,32.0,10.0,0.55,1.0,1.0,1.9438374999999724
4,2,ips,1,17,43.0,28.0,0.55,1.0,2.0,1.7789127000000917
4,2,ips,1,18,39.0,14.0,0.55,1.0,1.0,0.9638592999999673
4,2,ips,1,19,22.0,7.0,0.55,1.0,1.0,0.8541322000000946
4,2,ips,1,20,15.0,10.0,0.55,1.0,2.0,1.4551602999999886
4,2,ips,2,21,56.0,20.0,0.55,1.0,2.0,1.4546633999998377
4,2,ips,2,22,24.0,10.0,0.55,1.0,1.0,1.0608072999998512
4,2,ips,2,23,67.0,28.0,0.55,1.0,2.0,1.7054367999999158
4,2,ips,2,24,78.0,28.0,0.55,1.0,2.0,1.4130724000001464
4,2,ips,2,25,12.0,7.0,0.55,1.0,2.0,1.5384682999997352
4,2,ips,2,26,48.0,20.0,0.55,1.0,2.0,1.2646000999998392
4,2,ips,2,27,29.0,14.0,0.55,1.0,1.0,1.1994945000001138
4,2,ips,2,28,58.0,28.0,0.55,1.0,2.0,1.9874571999998807
4,2,ips,2,29,48.0,20.0,0.55,1.0,1.0,1.3294441000002735
4,2,ips,2,30,90.0,28.0,0.55,1.0,2.0,1.5722057000002678
4,2,ips,2,31,10.0,24.0,1.0,0.55,1.0,0.9327103999998769
4,2,ips,2,32,14.0,29.0,1.0,0.55,2.0,1.14890910000031
4,2,ips,2,33,10.0,20.0,1.0,0.55,1.0,1.7453818000003594
4,2,ips,2,34,10.0,24.0,1.0,0.55,2.0,0.9464514999999665
4,2,ips,2,35,28.0,67.0,1.0,0.55,1.0,0.8859028000001103
4,2,ips,2,36,28.0,43.0,1.0,0.55,2.0,1.959256699999969
4,2,ips,2,37,20.0,36.0,1.0,0.55,2.0,1.5589208999999755
4,2,ips,2,38,20.0,31.0,1.0,0.55,1.0,0.6383735999998521
4,2,ips,2,39,14.0,39.0,1.0,0.55,2.0,0.9228790000001368
4,2,ips,2,40,28.0,50.0,1.0,0.55,2.0,1.5872791000001598
4,2,ips,3,41,10.0,7.0,0.55,1.0,2.0,1.9578616000003422
4,2,ips,3,42,19.0,7.0,0.55,1.0,2.0,1.8040138999999726
4,2,ips,3,43,58.0,28.0,0.55,1.0,1.0,2.3220096000000012
4,2,ips,3,44,43.0,28.0,0.55,1.0,2.0,0.7612100999999711
4,2,ips,3,45,28.0,10.0,0.55,1.0,1.0,1.4893491000002683
4,2,ips,3,46,90.0,28.0,0.55,1.0,2.0,1.0903204000000812
4,2,ips,3,47,20.0,10.0,0.55,1.0,2.0,1.2504469000000284
4,2,ips,3,48,19.0,7.0,0.55,1.0,2.0,1.3307408000000294
4,2,ips,3,49,50.0,28.0,0.55,1.0,2.0,0.9714066999999886
4,2,ips,3,50,21.0,14.0,0.55,1.0,2.0,1.2015950999998495
4,2,ips,3,51,10.0,15.0,1.0,0.55,1.0,0.772112499999821
4,2,ips,3,52,20.0,64.0,1.0,0.55,2.0,1.1226319999999816
4,2,ips,3,53,20.0,64.0,1.0,0.55,1.0,1.590856500000001
4,2,ips,3,54,28.0,43.0,1.0,0.55,1.0,1.9693864000000758
4,2,ips,3,55,10.0,28.0,1.0,0.55,2.0,1.951037199999945
4,2,ips,3,56,20.0,48.0,1.0,0.55,2.0,0.8427713999999469
4,2,ips,3,57,10.0,18.0,1.0,0.55,2.0,1.3334905000001527
4,2,ips,3,58,28.0,78.0,1.0,0.55,2.0,1.513298500000019
4,2,ips,3,59,20.0,48.0,1.0,0.55,1.0,0.7037395999996079
4,2,ips,3,60,28.0,58.0,1.0,0.55,1.0,0.8812188000001697
4,2,ips,4,61,31.0,20.0,0.55,1.0,2.0,0.8794465000000855
4,2,ips,4,62,67.0,28.0,0.55,1.0,2.0,0.9163728999997147
4,2,ips,4,63,12.0,7.0,0.55,1.0,1.0,1.283658600000308
4,2,ips,4,64,10.0,7.0,0.55,1.0,2.0,0.6456544999996368
4,2,ips,4,65,25.0,14.0,0.55,1.0,1.0,1.1999242000001829
4,2,ips,4,66,25.0,14.0,0.55,1.0,2.0,0.6184146999998887
4,2,ips,4,67,18.0,10.0,0.55,1.0,2.0,1.0019727000003655
4,2,ips,4,68,41.0,20.0,0.55,1.0,2.0,1.2537063999998281
4,2,ips,4,69,14.0,7.0,0.55,1.0,2.0,0.9309303
4,2,ips,4,70,36.0,20.0,0.55,1.0,2.0,0.5959514000001036
4,2,ips,4,71,7.0,16.0,1.0,0.55,1.0,1.0662624999999935
4,2,ips,4,72,7.0,22.0,1.0,0.55,2.0,1.0682069999997168
4,2,ips,4,73,7.0,22.0,1.0,0.55,2.0,0.934843600000022
4,2,ips,4,74,28.0,78.0,1.0,0.55,1.0,1.2153088999994566
4,2,ips,4,75,20.0,31.0,1.0,0.55,1.0,0.7364907999999275
4,2,ips,4,76,14.0,33.0,1.0,0.55,2.0,0.8088002000003769
4,2,ips,4,77,7.0,14.0,1.0,0.55,1.0,0.7449152999998034
4,2,ips,4,78,10.0,32.0,1.0,0.55,2.0,0.7924716999996235
4,2,ips,4,79,10.0,20.0,1.0,0.55,1.0,0.9964899999994827
4,2,ips,4,80,10.0,18.0,1.0,0.55,1.0,1.0590659999998024
4,2,ips,5,81,28.0,90.0,1.0,0.55,1.0,1.2868002999994133
4,2,ips,5,82,10.0,28.0,1.0,0.55,1.0,2.7410086999998384
4,2,ips,5,83,10.0,32.0,1.0,0.55,2.0,0.9647064999999202
4,2,ips,5,84,20.0,56.0,1.0,0.55,2.0,0.5363921999996819
4,2,ips,5,85,28.0,90.0,1.0,0.55,2.0,1.0188414000003547
4,2,ips,5,86,14.0,33.0,1.0,0.55,2.0,0.6358807999995264
4,2,ips,5,87,20.0,36.0,1.0,0.55,1.0,1.1516451000006782
4,2,ips,5,88,28.0,50.0,1.0,0.55,1.0,2.0360747000004125
4,2,ips,5,89,14.0,25.0,1.0,0.55,1.0,0.8950517000002947
4,2,ips,5,90,10.0,15.0,1.0,0.55,1.0,1.1768904000000475
4,2,ips,5,91,45.0,14.0,0.55,1.0,1.0,0.9101161000007778
4,2,ips,5,92,18.0,10.0,0.55,1.0,2.0,0.77477110000018
4,2,ips,5,93,32.0,10.0,0.55,1.0,2.0,0.667114799999581
4,2,ips,5,94,56.0,20.0,0.55,1.0,2.0,0.6666341999998338
4,2,ips,5,95,24.0,10.0,0.55,1.0,1.0,5.239305500000228
4,2,ips,5,96,21.0,14.0,0.55,1.0,2.0,0.5785523000004389
4,2,ips,5,97,33.0,14.0,0.55,1.0,2.0,1.2165886000001649
4,2,ips,5,98,16.0,7.0,0.55,1.0,1.0,1.289042999999765
4,2,ips,5,99,20.0,10.0,0.55,1.0,2.0,1.0034560000003694
4,2,ips,5,100,78.0,28.0,0.55,1.0,2.0,0.6642736000003424
4,2,ips,6,101,14.0,39.0,1.0,0.55,2.0,0.7898389000001771
4,2,ips,6,102,7.0,10.0,1.0,0.55,1.0,0.8639056000001801
4,2,ips,6,103,7.0,19.0,1.0,0.55,2.0,0.6157451999997718
4,2,ips,6,104,7.0,16.0,1.0,0.55,2.0,0.9638162000001103
4,2,ips,6,105,28.0,58.0,1.0,0.55,2.0,0.6810184999994675
4,2,ips,6,106,20.0,56.0,1.0,0.55,1.0,1.0547851999999978
4,2,ips,6,107,20.0,41.0,1.0,0.55,2.0,0.8306121999994645
4,2,ips,6,108,20.0,41.0,1.0,0.55,2.0,0.8208905000001181
4,2,ips,6,109,14.0,21.0,1.0,0.55,1.0,0.9497861999998349
4,2,ips,6,110,14.0,29.0,1.0,0.55,1.0,0.993759999999412
4,2,ips,6,111,33.0,14.0,0.55,1.0,2.0,0.7498685999998997
4,2,ips,6,112,29.0,14.0,0.55,1.0,1.0,0.8473608000003594
4,2,ips,6,113,14.0,7.0,0.55,1.0,1.0,0.8121343000002241
4,2,ips,6,114,22.0,7.0,0.55,1.0,1.0,1.2881273999992402
4,2,ips,6,115,36.0,20.0,0.55,1.0,2.0,0.5992016999998384
4,2,ips,6,116,64.0,20.0,0.55,1.0,2.0,1.0356523999998615
4,2,ips,6,117,45.0,14.0,0.55,1.0,1.0,1.056647599999451
4,2,ips,6,118,41.0,20.0,0.55,1.0,2.0,0.6001185000004057
4,2,ips,6,119,50.0,28.0,0.55,1.0,2.0,0.7622606000005021
4,2,ips,6,120,28.0,10.0,0.55,1.0,2.0,0.7129865000006248
4,3,vertex,1,1,64.0,20.0,0.55,1.0,2.0,0.913321900000021
4,3,vertex,1,2,67.0,28.0,0.55,1.0,2.0,1.3613791000000077
4,3,vertex,1,3,48.0,20.0,0.55,1.0,1.0,0.5129159999999118
4,3,vertex,1,4,50.0,28.0,0.55,1.0,2.0,1.0097968000000037
4,3,vertex,1,5,43.0,28.0,0.55,1.0,2.0,0.6463011000000733
4,3,vertex,1,6,19.0,7.0,0.55,1.0,2.0,0.8653784999999203
4,3,vertex,1,7,78.0,28.0,0.55,1.0,2.0,0.6815028999999413
4,3,vertex,1,8,56.0,20.0,0.55,1.0,1.0,0.8622166999998484
4,3,vertex,1,9,78.0,28.0,0.55,1.0,2.0,1.0422465999999986
4,3,vertex,1,10,58.0,28.0,0.55,1.0,1.0,0.9512816999999814
4,3,vertex,1,11,14.0,33.0,1.0,0.55,2.0,0.5558465999999953
4,3,vertex,1,12,14.0,25.0,1.0,0.55,1.0,0.7226565999999366
4,3,vertex,1,13,28.0,43.0,1.0,0.55,2.0,0.8151723000000572
4,3,vertex,1,14,7.0,22.0,1.0,0.55,2.0,1.4243209999999635
4,3,vertex,1,15,28.0,67.0,1.0,0.55,1.0,0.9858389999999417
4,3,vertex,1,16,14.0,39.0,1.0,0.55,2.0,0.8549789999999575
4,3,vertex,1,17,28.0,50.0,1.0,0.55,2.0,0.790422400000125
4,3,vertex,1,18,7.0,16.0,1.0,0.55,2.0,0.7369787000000088
4,3,vertex,1,19,28.0,50.0,1.0,0.55,1.0,0.7813304000001153
4,3,vertex,1,20,10.0,18.0,1.0,0.55,1.0,0.781879100000026
4,3,vertex,2,21,10.0,28.0,1.0,0.55,2.0,0.661864199999858
4,3,vertex,2,22,28.0,90.0,1.0,0.55,2.0,1.0185146000001168
4,3,vertex,2,23,10.0,20.0,1.0,0.55,2.0,0.9276299999999083
4,3,vertex,2,24,20.0,48.0,1.0,0.55,1.0,1.1211299999999795
4,3,vertex,2,25,20.0,64.0,1.0,0.55,2.0,0.8847805000000477
4,3,vertex,2,26,14.0,45.0,1.0,0.55,2.0,1.0136450999998345
4,3,vertex,2,27,28.0,43.0,1.0,0.55,1.0,0.8311203999999179
4,3,vertex,2,28,20.0,41.0,1.0,0.55,2.0,0.7581448000000819
4,3,vertex,2,29,20.0,36.0,1.0,0.55,1.0,0.8825082000000748
4,3,vertex,2,30,10.0,32.0,1.0,0.55,2.0,0.7045073999999829
4,3,vertex,2,31,29.0,14.0,0.55,1.0,2.0,1.2138307000000452
4,3,vertex,2,32,12.0,7.0,0.55,1.0,1.0,0.8664293000001351
4,3,vertex,2,33,24.0,10.0,0.55,1.0,2.0,1.0876305000001594
4,3,vertex,2,34,16.0,7.0,0.55,1.0,1.0,1.1963719000000026
4,3,vertex,2,35,39.0,14.0,0.55,1.0,2.0,1.02429589999997
4,3,vertex,2,36,19.0,7.0,0.55,1.0,1.0,0.9211175000000367
4,3,vertex,2,37,20.0,10.0,0.55,1.0,1.0,0.9465563000001112
4,3,vertex,2,38,48.0,20.0,0.55,1.0,2.0,0.9216166999999587
4,3,vertex,2,39,10.0,7.0,0.55,1.0,2.0,1.0672508000000107
4,3,vertex,2,40,56.0,20.0,0.55,1.0,2.0,0.7089604000000236
4,3,vertex,3,41,14.0,7.0,0.55,1.0,1.0,0.8376338999996733
4,3,vertex,3,42,39.0,14.0,0.55,1.0,2.0,0.8600621000000501
4,3,vertex,3,43,90.0,28.0,0.55,1.0,2.0,0.7836714000000029
4,3,vertex,3,44,12.0,7.0,0.55,1.0,1.0,0.7375271000000794
4,3,vertex,3,45,58.0,28.0,0.55,1.0,2.0,0.7449019999998967
4,3,vertex,3,46,18.0,10.0,0.55,1.0,1.0,0.889865199999818
4,3,vertex,3,47,28.0,10.0,0.55,1.0,1.0,1.0623190999999537
4,3,vertex,3,48,25.0,14.0,0.55,1.0,2.0,0.7856142999999207
4,3,vertex,3,49,29.0,14.0,0.55,1.0,2.0,1.0236524000001737
4,3,vertex,3,50,45.0,14.0,0.55,1.0,1.0,0.7004136000000472
4,3,vertex,3,51,20.0,36.0,1.0,0.55,2.0,1.2541986000001373
4,3,vertex,3,52,28.0,78.0,1.0,0.55,2.0,0.8268398000001014
4,3,vertex,3,53,7.0,12.0,1.0,0.55,1.0,1.3275711000001422
4,3,vertex,3,54,28.0,78.0,1.0,0.55,2.0,0.7834396000002926
4,3,vertex,3,55,14.0,25.0,1.0,0.55,1.0,0.7714979000002415
4,3,vertex,3,56,14.0,33.0,1.0,0.55,2.0,0.9901883000002272
4,3,vertex,3,57,7.0,19.0,1.0,0.55,1.0,1.0768233999997392
4,3,vertex,3,58,20.0,31.0,1.0,0.55,2.0,0.7306308000001991
4,3,vertex,3,59,14.0,29.0,1.0,0.55,2.0,0.6206451999996716
4,3,vertex,3,60,10.0,18.0,1.0,0.55,,
4,3,vertex,4,61,7.0,22.0,1.0,0.55,2.0,0.898765800000092
4,3,vertex,4,62,7.0,14.0,1.0,0.55,1.0,0.8907533000001493
4,3,vertex,4,63,20.0,56.0,1.0,0.55,2.0,1.0720344999999725
4,3,vertex,4,64,28.0,58.0,1.0,0.55,2.0,0.9439619999998285
4,3,vertex,4,65,10.0,15.0,1.0,0.55,1.0,1.3421707000002243
4,3,vertex,4,66,10.0,24.0,1.0,0.55,1.0,0.8062503000000731
4,3,vertex,4,67,10.0,20.0,1.0,0.55,1.0,0.7793269999997392
4,3,vertex,4,68,10.0,24.0,1.0,0.55,2.0,0.7121151000001191
4,3,vertex,4,69,14.0,21.0,1.0,0.55,1.0,0.5848101999999642
4,3,vertex,4,70,7.0,16.0,1.0,0.55,2.0,0.6397216999998818
4,3,vertex,4,71,14.0,7.0,0.55,1.0,1.0,0.6765814000000603
4,3,vertex,4,72,31.0,20.0,0.55,1.0,2.0,0.8063330999997902
4,3,vertex,4,73,90.0,28.0,0.55,1.0,2.0,0.5926269999999363
4,3,vertex,4,74,32.0,10.0,0.55,1.0,1.0,0.7816781000000788
4,3,vertex,4,75,15.0,10.0,0.55,1.0,2.0,0.5062053999999705
4,3,vertex,4,76,22.0,7.0,0.55,1.0,1.0,0.9456147999999303
4,3,vertex,4,77,41.0,20.0,0.55,1.0,2.0,0.6784198000000004
4,3,vertex,4,78,21.0,14.0,0.55,1.0,2.0,0.5240441999999348
4,3,vertex,4,79,43.0,28.0,0.55,1.0,2.0,0.6187556999998378
4,3,vertex,4,80,25.0,14.0,0.55,1.0,1.0,0.7255381999998463
4,3,vertex,5,81,64.0,20.0,0.55,1.0,1.0,0.49140330000000176
4,3,vertex,5,82,36.0,20.0,0.55,1.0,2.0,0.5343308000001272
4,3,vertex,5,83,20.0,10.0,0.55,1.0,1.0,0.6344190999998318
4,3,vertex,5,84,33.0,14.0,0.55,1.0,2.0,0.6846984000003431
4,3,vertex,5,85,18.0,10.0,0.55,1.0,1.0,0.6667189999998158
4,3,vertex,5,86,31.0,20.0,0.55,1.0,2.0,0.609331199999815
4,3,vertex,5,87,21.0,14.0,0.55,1.0,2.0,0.42944549999991466
4,3,vertex,5,88,16.0,7.0,0.55,1.0,2.0,0.6478652000000551
4,3,vertex,5,89,15.0,10.0,0.55,1.0,2.0,0.7987693000000036
4,3,vertex,5,90,45.0,14.0,0.55,1.0,2.0,0.5842964999997093
4,3,vertex,5,91,14.0,45.0,1.0,0.55,2.0,0.9721152000002178
4,3,vertex,5,92,28.0,90.0,1.0,0.55,2.0,0.8157779000003131
4,3,vertex,5,93,14.0,29.0,1.0,0.55,1.0,0.8244348999997158
4,3,vertex,5,94,7.0,10.0,1.0,0.55,2.0,0.7464239000001385
4,3,vertex,5,95,20.0,56.0,1.0,0.55,1.0,1.084013700000014
4,3,vertex,5,96,28.0,67.0,1.0,0.55,2.0,0.615135400000355
4,3,vertex,5,97,20.0,48.0,1.0,0.55,1.0,0.76989470000035
4,3,vertex,5,98,20.0,41.0,1.0,0.55,2.0,0.9007550999999694
4,3,vertex,5,99,7.0,14.0,1.0,0.55,2.0,0.4282757999999376
4,3,vertex,5,100,7.0,12.0,1.0,0.55,1.0,0.8903009999999085
4,3,vertex,6,101,28.0,58.0,1.0,0.55,1.0,0.926357100000132
4,3,vertex,6,102,20.0,31.0,1.0,0.55,1.0,0.46640960000012655
4,3,vertex,6,103,20.0,64.0,1.0,0.55,2.0,0.5739403000002312
4,3,vertex,6,104,7.0,19.0,1.0,0.55,2.0,1.237986600000113
4,3,vertex,6,105,14.0,39.0,1.0,0.55,2.0,0.7974318000001119
4,3,vertex,6,106,10.0,15.0,1.0,0.55,1.0,0.7881806000000324
4,3,vertex,6,107,7.0,10.0,1.0,0.55,1.0,0.9841093999998805
4,3,vertex,6,108,14.0,21.0,1.0,0.55,1.0,0.5930752999997537
4,3,vertex,6,109,10.0,28.0,1.0,0.55,1.0,0.7867729999998119
4,3,vertex,6,110,10.0,32.0,1.0,0.55,2.0,0.835232299999916
4,3,vertex,6,111,36.0,20.0,0.55,1.0,2.0,0.5450844999999731
4,3,vertex,6,112,10.0,7.0,0.55,1.0,2.0,0.6895331000000624
4,3,vertex,6,113,41.0,20.0,0.55,1.0,2.0,0.7203404000001683
4,3,vertex,6,114,33.0,14.0,0.55,1.0,1.0,0.838411899999727
4,3,vertex,6,115,32.0,10.0,0.55,1.0,1.0,0.7847667999999146
4,3,vertex,6,116,28.0,10.0,0.55,1.0,,
4,3,vertex,6,117,67.0,28.0,0.55,1.0,,
4,3,vertex,6,118,22.0,7.0,0.55,1.0,,
4,3,vertex,6,119,50.0,28.0,0.55,1.0,,
4,3,vertex,6,120,24.0,10.0,0.55,1.0,,
5,1,baseline,1,1,10.0,29.0,1.0,0.55,2.0,1.5242732000006107
5,1,baseline,1,2,28.0,53.0,1.0,0.55,1.0,0.7434752999997585
5,1,baseline,1,3,10.0,33.0,1.0,0.55,2.0,1.1795846000004389
5,1,baseline,1,4,20.0,37.0,1.0,0.55,1.0,0.8666880000000674
5,1,baseline,1,5,20.0,66.0,1.0,0.55,2.0,0.86287489999998
5,1,baseline,1,6,20.0,42.0,1.0,0.55,2.0,1.0510756000003454
5,1,baseline,1,7,28.0,66.0,1.0,0.55,1.0,2.0915433000009216
5,1,baseline,1,8,7.0,20.0,1.0,0.55,2.0,0.6953450000000743
5,1,baseline,1,9,28.0,59.0,1.0,0.55,1.0,1.9292556000000332
5,1,baseline,1,10,7.0,14.0,1.0,0.55,1.0,2.278484500000559
5,1,baseline,1,11,18.0,7.0,0.55,1.0,1.0,0.8287313000001006
5,1,baseline,1,12,14.0,7.0,0.55,1.0,1.0,1.1448978999997053
5,1,baseline,1,13,14.0,7.0,0.55,1.0,2.0,1.9297601999987535
5,1,baseline,1,14,23.0,7.0,0.55,1.0,1.0,0.759416699998809
5,1,baseline,1,15,21.0,10.0,0.55,1.0,1.0,2.078123400000578
5,1,baseline,1,16,66.0,20.0,0.55,1.0,1.0,0.625837300000029
5,1,baseline,1,17,23.0,10.0,0.55,1.0,1.0,0.9582250000003114
5,1,baseline,1,18,37.0,14.0,0.55,1.0,1.0,1.0611487000005582
5,1,baseline,1,19,53.0,20.0,0.55,1.0,1.0,1.7155848000002152
5,1,baseline,1,20,29.0,10.0,0.55,1.0,1.0,0.8325141000004805
5,1,baseline,2,21,10.0,29.0,1.0,0.55,2.0,1.5964514999995956
5,1,baseline,2,22,7.0,13.0,1.0,0.55,1.0,0.8590653999999631
5,1,baseline,2,23,28.0,53.0,1.0,0.55,1.0,0.7918948000005912
5,1,baseline,2,24,20.0,66.0,1.0,0.55,2.0,1.0338539999993372
5,1,baseline,2,25,20.0,37.0,1.0,0.55,1.0,1.0061808999999045
5,1,baseline,2,26,28.0,83.0,1.0,0.55,1.0,0.9655199999997564
5,1,baseline,2,27,14.0,41.0,1.0,0.55,2.0,0.8958221000011548
5,1,baseline,2,28,28.0,74.0,1.0,0.55,2.0,1.6561415000014819
5,1,baseline,2,29,14.0,37.0,1.0,0.55,1.0,1.8522850000008475
5,1,baseline,2,30,20.0,59.0,1.0,0.55,2.0,1.4485438999999758
5,1,baseline,2,31,42.0,20.0,0.55,1.0,2.0,1.4520111000001066
5,1,baseline,2,32,33.0,10.0,0.55,1.0,1.0,0.9901414000014199
5,1,baseline,2,33,18.0,10.0,0.55,1.0,2.0,1.3987171000007947
5,1,baseline,2,34,23.0,10.0,0.55,1.0,1.0,1.0197757000005652
5,1,baseline,2,35,92.0,28.0,0.55,1.0,1.0,1.066132099998839
5,1,baseline,2,36,13.0,7.0,0.55,1.0,1.0,1.3951899999992747
5,1,baseline,2,37,37.0,20.0,0.55,1.0,2.0,1.1120232999983273
5,1,baseline,2,38,59.0,28.0,0.55,1.0,2.0,0.9510480999997526
5,1,baseline,2,39,26.0,14.0,0.55,1.0,1.0,1.9712954999995418
5,1,baseline,2,40,59.0,20.0,0.55,1.0,1.0,1.169204300000274
5,1,baseline,3,41,7.0,13.0,1.0,0.55,2.0,1.3261667000006128
5,1,baseline,3,42,28.0,92.0,1.0,0.55,1.0,1.2791338000006363
5,1,baseline,3,43,20.0,47.0,1.0,0.55,1.0,1.0634964000000764
5,1,baseline,3,44,20.0,47.0,1.0,0.55,1.0,1.9584439999998722
5,1,baseline,3,45,7.0,14.0,1.0,0.55,1.0,1.5888138999998773
5,1,baseline,3,46,28.0,83.0,1.0,0.55,2.0,0.772381099999663
5,1,baseline,3,47,10.0,33.0,1.0,0.55,2.0,2.1434940999988896
5,1,baseline,3,48,10.0,21.0,1.0,0.55,1.0,1.2258014999988376
5,1,baseline,3,49,7.0,18.0,1.0,0.55,2.0,1.913422100000389
5,1,baseline,3,50,10.0,21.0,1.0,0.55,2.0,1.8054432999997232
5,1,baseline,3,51,47.0,20.0,0.55,1.0,1.0,1.630141799998455
5,1,baseline,3,52,29.0,10.0,0.55,1.0,1.0,0.7555616999998165
5,1,baseline,3,53,20.0,7.0,0.55,1.0,1.0,0.7299714000001245
5,1,baseline,3,54,18.0,7.0,0.55,1.0,1.0,0.7930694000005758
5,1,baseline,3,55,74.0,28.0,0.55,1.0,1.0,0.9136699000009969
5,1,baseline,3,56,26.0,10.0,0.55,1.0,1.0,0.5864887999996427
5,1,baseline,3,57,74.0,28.0,0.55,1.0,2.0,1.0547656999988249
5,1,baseline,3,58,41.0,14.0,0.55,1.0,1.0,1.7703388999998424
5,1,baseline,3,59,42.0,20.0,0.55,1.0,2.0,0.6860487000013222
5,1,baseline,3,60,21.0,10.0,0.55,1.0,1.0,1.5659900999999081
5,1,baseline,4,61,53.0,28.0,0.55,1.0,2.0,1.894342600000531
5,1,baseline,4,62,83.0,28.0,0.55,1.0,1.0,1.1936103000007279
5,1,baseline,4,63,59.0,28.0,0.55,1.0,2.0,2.4093491999992622
5,1,baseline,4,64,53.0,28.0,0.55,1.0,1.0,1.089834799999153
5,1,baseline,4,65,46.0,14.0,0.55,1.0,1.0,0.933192299999078
5,1,baseline,4,66,37.0,20.0,0.55,1.0,2.0,0.8287346999986624
5,1,baseline,4,67,59.0,20.0,0.55,1.0,1.0,1.1729447999987457
5,1,baseline,4,68,26.0,10.0,0.55,1.0,1.0,1.7869145999993634
5,1,baseline,4,69,66.0,20.0,0.55,1.0,1.0,0.9074283999998443
5,1,baseline,4,70,47.0,20.0,0.55,1.0,2.0,0.48186569999958806
5,1,baseline,4,71,7.0,16.0,1.0,0.55,2.0,1.9632010999993952
5,1,baseline,4,72,14.0,29.0,1.0,0.55,1.0,0.8243139000005613
5,1,baseline,4,73,10.0,18.0,1.0,0.55,1.0,1.4337964000005456
5,1,baseline,4,74,14.0,33.0,1.0,0.55,2.0,1.6413001000000236
5,1,baseline,4,75,10.0,23.0,1.0,0.55,2.0,1.1680147999996109
5,1,baseline,4,76,14.0,41.0,1.0,0.55,1.0,1.0942544999998063
5,1,baseline,4,77,7.0,23.0,1.0,0.55,2.0,1.284227000000044
5,1,baseline,4,78,20.0,53.0,1.0,0.55,1.0,1.3032234000002063
5,1,baseline,4,79,10.0,26.0,1.0,0.55,1.0,0.6999747000008938
5,1,baseline,4,80,14.0,26.0,1.0,0.55,1.0,1.1569466000000261
5,1,baseline,5,81,18.0,10.0,0.55,1.0,2.0,1.0082688000002236
5,1,baseline,5,82,16.0,7.0,0.55,1.0,1.0,0.7333281999999599
5,1,baseline,5,83,20.0,7.0,0.55,1.0,1.0,0.9914950000002136
5,1,baseline,5,84,66.0,28.0,0.55,1.0,2.0,2.0186443000002185
5,1,baseline,5,85,41.0,14.0,0.55,1.0,2.0,2.1483411000008346
5,1,baseline,5,86,16.0,7.0,0.55,1.0,1.0,0.8466661999991629
5,1,baseline,5,87,29.0,14.0,0.55,1.0,2.0,0.7319483000010365
5,1,baseline,5,88,92.0,28.0,0.55,1.0,1.0,0.8156842999997025
5,1,baseline,5,89,46.0,14.0,0.55,1.0,1.0,0.957210300000952
5,1,baseline,5,90,33.0,10.0,0.55,1.0,1.0,0.745864000000438
5,1,baseline,5,91,28.0,92.0,1.0,0.55,1.0,0.8861601999997504
5,1,baseline,5,92,20.0,53.0,1.0,0.55,1.0,0.9275335000001519
5,1,baseline,5,93,28.0,66.0,1.0,0.55,1.0,0.7308573000009346
5,1,baseline,5,94,14.0,46.0,1.0,0.55,1.0,2.095764600000649
5,1,baseline,5,95,20.0,42.0,1.0,0.55,1.0,1.0427040999984172
5,1,baseline,5,96,28.0,59.0,1.0,0.55,1.0,0.6604561000004026
5,1,baseline,5,97,14.0,33.0,1.0,0.55,2.0,0.5411936000000424
5,1,baseline,5,98,7.0,20.0,1.0,0.55,2.0,0.7240806000008888
5,1,baseline,5,99,14.0,46.0,1.0,0.55,2.0,1.8317675999987841
5,1,baseline,5,100,7.0,18.0,1.0,0.55,2.0,0.6009840999995504
5,1,baseline,6,101,33.0,14.0,0.55,1.0,2.0,1.262860199998613
5,1,baseline,6,102,37.0,14.0,0.55,1.0,2.0,0.8486696000000009
5,1,baseline,6,103,29.0,14.0,0.55,1.0,1.0,0.5515495999989071
5,1,baseline,6,104,53.0,20.0,0.55,1.0,1.0,1.872777499998847
5,1,baseline,6,105,26.0,14.0,0.55,1.0,2.0,1.4725288999998014
5,1,baseline,6,106,13.0,7.0,0.55,1.0,1.0,1.0497949000000517
5,1,baseline,6,107,66.0,28.0,0.55,1.0,1.0,0.9153666999991685
5,1,baseline,6,108,33.0,14.0,0.55,1.0,1.0,2.1161894999986686
5,1,baseline,6,109,23.0,7.0,0.55,1.0,1.0,1.1628622999996878
5,1,baseline,6,110,83.0,28.0,0.55,1.0,1.0,1.90441009999995
5,1,baseline,6,111,20.0,59.0,1.0,0.55,1.0,1.9607885999994323
5,1,baseline,6,112,14.0,26.0,1.0,0.55,1.0,0.854013599999206
5,1,baseline,6,113,10.0,26.0,1.0,0.55,2.0,1.620930099999896
5,1,baseline,6,114,10.0,23.0,1.0,0.55,2.0,1.5410754000003806
5,1,baseline,6,115,10.0,18.0,1.0,0.55,1.0,0.5970465999998567
5,1,baseline,6,116,14.0,29.0,1.0,0.55,1.0,0.9784834000000444
5,1,baseline,6,117,7.0,16.0,1.0,0.55,2.0,0.4574954999988279
5,1,baseline,6,118,28.0,74.0,1.0,0.55,1.0,1.1738702000002377
5,1,baseline,6,119,14.0,37.0,1.0,0.55,1.0,0.6495305999997072
5,1,baseline,6,120,7.0,23.0,1.0,0.55,2.0,0.631573999999091
5,2,vertex,1,1,28.0,66.0,1.0,0.55,1.0,1.4812910000000414
5,2,vertex,1,2,7.0,18.0,1.0,0.55,2.0,0.7992673999997209
5,2,vertex,1,3,7.0,13.0,1.0,0.55,2.0,0.7924789999997444
5,2,vertex,1,4,28.0,83.0,1.0,0.55,2.0,0.874664799999664
5,2,vertex,1,5,20.0,59.0,1.0,0.55,2.0,0.6009262999996281
5,2,vertex,1,6,14.0,41.0,1.0,0.55,2.0,1.7221618000003218
5,2,vertex,1,7,10.0,33.0,1.0,0.55,2.0,0.7517313999996702
5,2,vertex,1,8,20.0,47.0,1.0,0.55,1.0,1.6975911999998345
5,2,vertex,1,9,7.0,14.0,1.0,0.55,1.0,2.2020429000003787
5,2,vertex,1,10,10.0,18.0,1.0,0.55,2.0,1.8829026000003637
5,2,vertex,1,11,37.0,20.0,0.55,1.0,2.0,0.7464510999998311
5,2,vertex,1,12,18.0,7.0,0.55,1.0,1.0,1.6079480000007607
5,2,vertex,1,13,46.0,14.0,0.55,1.0,1.0,1.2972167000007175
5,2,vertex,1,14,14.0,7.0,0.55,1.0,1.0,0.7920699999995122
5,2,vertex,1,15,59.0,20.0,0.55,1.0,1.0,1.0464899999987836
5,2,vertex,1,16,83.0,28.0,0.55,1.0,1.0,0.8955523999993602
5,2,vertex,1,17,21.0,10.0,0.55,1.0,1.0,0.8571032000000116
5,2,vertex,1,18,42.0,20.0,0.55,1.0,2.0,1.0044889000000694
5,2,vertex,1,19,16.0,7.0,0.55,1.0,1.0,0.9487926000001607
5,2,vertex,1,20,74.0,28.0,0.55,1.0,2.0,0.9790179999999964
5,2,vertex,2,21,16.0,7.0,0.55,1.0,1.0,0.741590500001621
5,2,vertex,2,22,29.0,10.0,0.55,1.0,1.0,1.073987699999634
5,2,vertex,2,23,18.0,10.0,0.55,1.0,1.0,1.734267699999691
5,2,vertex,2,24,42.0,20.0,0.55,1.0,2.0,1.3515016000001197
5,2,vertex,2,25,83.0,28.0,0.55,1.0,2.0,1.3220831999988008
5,2,vertex,2,26,33.0,10.0,0.55,1.0,1.0,1.2046758999986054
5,2,vertex,2,27,66.0,28.0,0.55,1.0,2.0,1.421037699999971
5,2,vertex,2,28,13.0,7.0,0.55,1.0,1.0,1.117692099998763
5,2,vertex,2,29,59.0,20.0,0.55,1.0,1.0,1.7678800000012416
5,2,vertex,2,30,18.0,7.0,0.55,1.0,1.0,0.7784830000000511
5,2,vertex,2,31,28.0,59.0,1.0,0.55,2.0,1.4464424999987102
5,2,vertex,2,32,10.0,29.0,1.0,0.55,2.0,1.0230698999984895
5,2,vertex,2,33,10.0,21.0,1.0,0.55,1.0,0.5897402999999031
5,2,vertex,2,34,7.0,23.0,1.0,0.55,2.0,0.7116768000014417
5,2,vertex,2,35,10.0,26.0,1.0,0.55,1.0,2.1709260999996616
5,2,vertex,2,36,20.0,42.0,1.0,0.55,1.0,0.6620295000011822
5,2,vertex,2,37,20.0,53.0,1.0,0.55,2.0,0.7919280000005529
5,2,vertex,2,38,14.0,33.0,1.0,0.55,1.0,1.257213099999717
5,2,vertex,2,39,28.0,53.0,1.0,0.55,1.0,0.7170201000008092
5,2,vertex,2,40,20.0,47.0,1.0,0.55,1.0,0.5996975000016391
5,2,vertex,3,41,33.0,10.0,0.55,1.0,1.0,0.9799593000007008
5,2,vertex,3,42,47.0,20.0,0.55,1.0,1.0,1.9316120999992492
5,2,vertex,3,43,37.0,14.0,0.55,1.0,2.0,1.2128157999995892
5,2,vertex,3,44,66.0,20.0,0.55,1.0,1.0,1.1969485999998142
5,2,vertex,3,45,41.0,14.0,0.55,1.0,1.0,1.078657399999443
5,2,vertex,3,46,33.0,14.0,0.55,1.0,1.0,0.9889758000008442
5,2,vertex,3,47,21.0,10.0,0.55,1.0,1.0,0.8427341999995548
5,2,vertex,3,48,53.0,20.0,0.55,1.0,1.0,1.4021075000000423
5,2,vertex,3,49,13.0,7.0,0.55,1.0,1.0,0.891384200000175
5,2,vertex,3,50,92.0,28.0,0.55,1.0,1.0,2.108740300000136
5,2,vertex,3,51,20.0,66.0,1.0,0.55,2.0,1.201919699999081
5,2,vertex,3,52,28.0,53.0,1.0,0.55,1.0,1.3547913999991295
5,2,vertex,3,53,7.0,18.0,1.0,0.55,2.0,0.6726532999982169
5,2,vertex,3,54,10.0,18.0,1.0,0.55,2.0,0.9510955999994337
5,2,vertex,3,55,14.0,29.0,1.0,0.55,1.0,1.5905404000005205
5,2,vertex,3,56,7.0,20.0,1.0,0.55,2.0,0.9813819999999396
5,2,vertex,3,57,20.0,66.0,1.0,0.55,2.0,0.934236999999456
5,2,vertex,3,58,14.0,37.0,1.0,0.55,2.0,0.9693682000015542
5,2,vertex,3,59,14.0,41.0,1.0,0.55,2.0,0.873616500000935
5,2,vertex,3,60,14.0,29.0,1.0,0.55,1.0,1.1789890999989439
5,2,vertex,4,61,74.0,28.0,0.55,1.0,1.0,0.7240139999994426
5,2,vertex,4,62,47.0,20.0,0.55,1.0,1.0,0.9440577999994346
5,2,vertex,4,63,59.0,28.0,0.55,1.0,1.0,0.9754212999996525
5,2,vertex,4,64,23.0,7.0,0.55,1.0,1.0,0.7644954999996116
5,2,vertex,4,65,33.0,14.0,0.55,1.0,1.0,0.6524996999996802
5,2,vertex,4,66,14.0,7.0,0.55,1.0,1.0,0.9532865000000896
5,2,vertex,4,67,23.0,7.0,0.55,1.0,1.0,0.747866499999887
5,2,vertex,4,68,29.0,14.0,0.55,1.0,1.0,1.031821900000054
5,2,vertex,4,69,66.0,20.0,0.55,1.0,1.0,0.9815483000002132
5,2,vertex,4,70,26.0,10.0,0.55,1.0,1.0,0.5164965000003576
5,2,vertex,4,71,28.0,66.0,1.0,0.55,2.0,0.8909013000011328
5,2,vertex,4,72,7.0,23.0,1.0,0.55,2.0,1.1274795999998162
5,2,vertex,4,73,14.0,33.0,1.0,0.55,1.0,0.7608582000012234
5,2,vertex,4,74,14.0,46.0,1.0,0.55,2.0,1.2393480000009731
5,2,vertex,4,75,20.0,59.0,1.0,0.55,2.0,1.251908299998803
5,2,vertex,4,76,10.0,29.0,1.0,0.55,1.0,0.868058199999723
5,2,vertex,4,77,14.0,26.0,1.0,0.55,1.0,1.637766099998771
5,2,vertex,4,78,10.0,23.0,1.0,0.55,1.0,0.9733757999983936
5,2,vertex,4,79,14.0,26.0,1.0,0.55,1.0,0.8218866999995953
5,2,vertex,4,80,10.0,26.0,1.0,0.55,2.0,0.822978799998964
5,2,vertex,5,81,46.0,14.0,0.55,1.0,1.0,0.5429927999994142
5,2,vertex,5,82,66.0,28.0,0.55,1.0,2.0,0.9314697999998316
5,2,vertex,5,83,20.0,7.0,0.55,1.0,1.0,0.8186334000001807
5,2,vertex,5,84,23.0,10.0,0.55,1.0,1.0,0.8040466000002269
5,2,vertex,5,85,26.0,10.0,0.55,1.0,1.0,0.8554681999994642
5,2,vertex,5,86,26.0,14.0,0.55,1.0,1.0,0.5771812000002541
5,2,vertex,5,87,92.0,28.0,0.55,1.0,1.0,0.930957300000955
5,2,vertex,5,88,53.0,28.0,0.55,1.0,1.0,0.8166316999995615
5,2,vertex,5,89,20.0,7.0,0.55,1.0,1.0,0.6219407000007777
5,2,vertex,5,90,18.0,10.0,0.55,1.0,1.0,0.4956593000006251
5,2,vertex,5,91,20.0,37.0,1.0,0.55,2.0,0.9121252999994454
5,2,vertex,5,92,20.0,37.0,1.0,0.55,1.0,1.0995521000004942
5,2,vertex,5,93,10.0,23.0,1.0,0.55,2.0,0.485577799998282
5,2,vertex,5,94,28.0,74.0,1.0,0.55,2.0,1.2781970000014837
5,2,vertex,5,95,10.0,33.0,1.0,0.55,2.0,0.7503648999991128
5,2,vertex,5,96,28.0,59.0,1.0,0.55,2.0,0.6472628000011298
5,2,vertex,5,97,28.0,74.0,1.0,0.55,2.0,0.7084852000006379
5,2,vertex,5,98,14.0,37.0,1.0,0.55,2.0,0.511489900000015
5,2,vertex,5,99,28.0,92.0,1.0,0.55,2.0,0.5892301999992924
5,2,vertex,5,100,7.0,13.0,1.0,0.55,2.0,0.7904890999998315
5,2,vertex,6,101,7.0,20.0,1.0,0.55,2.0,1.2095276999989437
5,2,vertex,6,102,28.0,83.0,1.0,0.55,2.0,0.7074315000008937
5,2,vertex,6,103,14.0,46.0,1.0,0.55,2.0,0.8305194000004121
5,2,vertex,6,104,7.0,16.0,1.0,0.55,2.0,0.901908399999229
5,2,vertex,6,105,10.0,21.0,1.0,0.55,2.0,1.1389383000005182
5,2,vertex,6,106,20.0,42.0,1.0,0.55,2.0,0.9064473000016875
5,2,vertex,6,107,7.0,14.0,1.0,0.55,1.0,0.915202499998486
5,2,vertex,6,108,28.0,92.0,1.0,0.55,2.0,0.7122046999993472
5,2,vertex,6,109,7.0,16.0,1.0,0.55,2.0,1.501319799999692
5,2,vertex,6,110,20.0,53.0,1.0,0.55,2.0,0.6999144000001252
5,2,vertex,6,111,53.0,20.0,0.55,1.0,1.0,0.5304816000007122
5,2,vertex,6,112,53.0,28.0,0.55,1.0,2.0,1.1600307000007888
5,2,vertex,6,113,37.0,14.0,0.55,1.0,1.0,1.2137301000002765
5,2,vertex,6,114,41.0,14.0,0.55,1.0,1.0,0.542791799998696
5,2,vertex,6,115,29.0,10.0,0.55,1.0,1.0,0.8825900999999874
5,2,vertex,6,116,26.0,14.0,0.55,1.0,1.0,0.44959510000080627
5,2,vertex,6,117,29.0,14.0,0.55,1.0,1.0,0.6299727000005078
5,2,vertex,6,118,59.0,28.0,0.55,1.0,1.0,0.6332277999990765
5,2,vertex,6,119,37.0,20.0,0.55,1.0,1.0,0.792558999999585
5,2,vertex,6,120,23.0,10.0,0.55,1.0,1.0,0.5351797000002989
5,3,ips,1,1,33.0,10.0,0.55,1.0,1.0,1.291139099999782
5,3,ips,1,2,26.0,10.0,0.55,1.0,1.0,0.8684831999999005
5,3,ips,1,3,21.0,10.0,0.55,1.0,1.0,0.9308798000002128
5,3,ips,1,4,37.0,14.0,0.55,1.0,1.0,0.6837806999992324
5,3,ips,1,5,83.0,28.0,0.55,1.0,1.0,1.6335469999993961
5,3,ips,1,6,29.0,10.0,0.55,1.0,1.0,0.8508375000001678
5,3,ips,1,7,53.0,28.0,0.55,1.0,2.0,1.405413000000408
5,3,ips,1,8,42.0,20.0,0.55,1.0,1.0,0.6621706000005219
5,3,ips,1,9,53.0,20.0,0.55,1.0,1.0,0.8061061999997037
5,3,ips,1,10,20.0,7.0,0.55,1.0,1.0,0.7540872000008676
5,3,ips,1,11,28.0,83.0,1.0,0.55,2.0,1.5133953999993537
5,3,ips,1,12,20.0,37.0,1.0,0.55,1.0,0.6607975000006547
5,3,ips,1,13,14.0,46.0,1.0,0.55,2.0,0.9359712000004663
5,3,ips,1,14,14.0,29.0,1.0,0.55,2.0,1.2345015999999305
5,3,ips,1,15,10.0,29.0,1.0,0.55,1.0,0.9273735999996404
5,3,ips,1,16,14.0,33.0,1.0,0.55,2.0,1.3166660999996225
5,3,ips,1,17,28.0,66.0,1.0,0.55,2.0,0.7794164999995417
5,3,ips,1,18,7.0,16.0,1.0,0.55,2.0,1.1580224000008457
5,3,ips,1,19,28.0,53.0,1.0,0.55,1.0,1.6672584999996616
5,3,ips,1,20,7.0,13.0,1.0,0.55,1.0,0.7798789999997098
5,3,ips,2,21,20.0,66.0,1.0,0.55,2.0,0.7424711000003299
5,3,ips,2,22,10.0,26.0,1.0,0.55,2.0,0.6025520999992295
5,3,ips,2,23,28.0,74.0,1.0,0.55,2.0,0.7332829999995738
5,3,ips,2,24,7.0,23.0,1.0,0.55,1.0,1.8842917000001762
5,3,ips,2,25,10.0,33.0,1.0,0.55,2.0,0.6957318000004449
5,3,ips,2,26,28.0,74.0,1.0,0.55,2.0,0.772056199999497
5,3,ips,2,27,28.0,53.0,1.0,0.55,1.0,0.5578814000000278
5,3,ips,2,28,28.0,92.0,1.0,0.55,2.0,0.6006630000010773
5,3,ips,2,29,7.0,16.0,1.0,0.55,2.0,0.9424507000003359
5,3,ips,2,30,14.0,37.0,1.0,0.55,2.0,0.7775880999997753
5,3,ips,2,31,47.0,20.0,0.55,1.0,1.0,0.5345485999987432
5,3,ips,2,32,41.0,14.0,0.55,1.0,1.0,0.763330200001235
5,3,ips,2,33,66.0,20.0,0.55,1.0,1.0,0.7443834000005154
5,3,ips,2,34,18.0,10.0,0.55,1.0,1.0,0.5913494999985858
5,3,ips,2,35,66.0,20.0,0.55,1.0,1.0,0.7210080000004382
5,3,ips,2,36,92.0,28.0,0.55,1.0,1.0,0.5961206000010861
5,3,ips,2,37,33.0,14.0,0.55,1.0,1.0,0.41826360000050045
5,3,ips,2,38,53.0,28.0,0.55,1.0,1.0,0.7459610000005341
5,3,ips,2,39,46.0,14.0,0.55,1.0,1.0,0.7263507999996364
5,3,ips,2,40,83.0,28.0,0.55,1.0,1.0,0.6646742000011727
5,3,ips,3,41,28.0,66.0,1.0,0.55,2.0,0.7734755000001279
5,3,ips,3,42,10.0,18.0,1.0,0.55,1.0,1.6509881000001698
5,3,ips,3,43,20.0,59.0,1.0,0.55,2.0,0.556307700000616
5,3,ips,3,44,7.0,20.0,1.0,0.55,2.0,0.47705499999938183
5,3,ips,3,45,10.0,29.0,1.0,0.55,2.0,1.0908746999994179
5,3,ips,3,46,10.0,26.0,1.0,0.55,2.0,1.4048277000001974
5,3,ips,3,47,10.0,23.0,1.0,0.55,2.0,0.6579792000011366
5,3,ips,3,48,20.0,42.0,1.0,0.55,2.0,1.0932124000009793
5,3,ips,3,49,7.0,20.0,1.0,0.55,2.0,0.7387175000003481
5,3,ips,3,50,10.0,21.0,1.0,0.55,1.0,1.0724652000008348
5,3,ips,3,51,16.0,7.0,0.55,1.0,2.0,0.7551376000009782
5,3,ips,3,52,59.0,28.0,0.55,1.0,2.0,0.7484536000011133
5,3,ips,3,53,33.0,10.0,0.55,1.0,1.0,0.6457848999998248
5,3,ips,3,54,26.0,10.0,0.55,1.0,1.0,0.6440862999989463
5,3,ips,3,55,59.0,20.0,0.55,1.0,2.0,1.1942350000008446
5,3,ips,3,56,74.0,28.0,0.55,1.0,2.0,0.947613700000062
5,3,ips,3,57,18.0,10.0,0.55,1.0,1.0,0.7554778999983682
5,3,ips,3,58,42.0,20.0,0.55,1.0,2.0,0.7621206999992864
5,3,ips,3,59,13.0,7.0,0.55,1.0,1.0,0.5519681999994646
5,3,ips,3,60,23.0,7.0,0.55,1.0,1.0,0.5827406999997038
5,3,ips,4,61,23.0,10.0,0.55,1.0,1.0,0.5679595000001427
5,3,ips,4,62,66.0,28.0,0.55,1.0,1.0,1.3749200999991444
