subject,session,run,trial_nr,n1,n2,p1,p2,risky_first,choice,rt,log_risky_safe,chose_risky,certainty
02,3t2,1,1,5.0,5.0,0.55,1.0,True,True,1.096017316826174,0.0,False,1.0
02,3t2,1,2,7.0,7.0,0.55,1.0,True,True,1.3246269050271169,0.0,False,1.0
02,3t2,1,3,37.0,20.0,0.55,1.0,True,True,1.224786048419226,0.6151856390902335,False,3.0
02,3t2,1,4,47.0,20.0,0.55,1.0,True,False,1.1257235810969632,0.8544153281560676,True,3.0
02,3t2,1,5,18.0,10.0,0.55,1.0,True,True,1.1753744510517663,0.5877866649021191,False,3.0
02,3t2,1,6,18.0,14.0,0.55,1.0,True,True,1.391700375272194,0.2513144282809061,False,2.0
02,3t2,1,7,32.0,28.0,0.55,1.0,True,True,0.890794363894841,0.1335313926245225,False,1.0
02,3t2,1,8,13.0,7.0,0.55,1.0,True,False,0.9242813761245544,0.6190392084062235,True,1.0
02,3t2,1,9,13.0,10.0,0.55,1.0,True,True,1.0911366382080985,0.262364264467491,False,1.0
02,3t2,1,10,11.0,5.0,0.55,1.0,True,False,1.258715745070532,0.7884573603642703,True,3.0
02,3t2,1,11,9.0,7.0,0.55,1.0,True,False,1.8258411983399585,0.2513144282809061,True,3.0
02,3t2,1,12,14.0,14.0,0.55,1.0,True,True,0.8579199979749319,0.0,False,2.0
02,3t2,1,13,14.0,18.0,1.0,0.55,False,False,1.9095658106593871,0.2513144282809061,False,3.0
02,3t2,1,14,28.0,32.0,1.0,0.55,False,False,2.110849806427467,0.1335313926245225,False,2.0
02,3t2,1,15,14.0,33.0,1.0,0.55,False,True,1.258452967115517,0.8574502318512216,True,2.0
02,3t2,1,16,10.0,14.0,1.0,0.55,False,True,1.6761578126267975,0.3364722366212129,True,3.0
02,3t2,1,17,14.0,26.0,1.0,0.55,False,True,0.8913485481368753,0.6190392084062235,True,2.0
02,3t2,1,18,28.0,59.0,1.0,0.55,False,True,0.8413583571075378,0.7453329337305156,True,1.0
02,3t2,1,19,14.0,20.0,1.0,0.55,False,False,1.3082834421861662,0.3566749439387324,False,2.0
02,3t2,1,20,28.0,59.0,1.0,0.55,False,True,1.0085026146707037,0.7453329337305156,True,1.0
02,3t2,1,21,7.0,13.0,1.0,0.55,False,False,2.1938020564784892,0.6190392084062235,False,3.0
02,3t2,1,22,5.0,9.0,1.0,0.55,False,True,1.6595841177243074,0.5877866649021191,True,3.0
02,3t2,1,23,7.0,11.0,1.0,0.55,False,True,1.8097819093651992,0.4519851237430572,True,3.0
02,3t2,1,24,5.0,5.0,1.0,0.55,False,False,1.291671475724172,0.0,False,1.0
02,3t2,2,25,52.0,28.0,0.55,1.0,True,False,1.9141285641142076,0.6190392084062235,True,3.0
02,3t2,2,26,23.0,14.0,0.55,1.0,True,False,2.3272706561704126,0.496436886313891,True,3.0
02,3t2,2,27,11.0,7.0,0.55,1.0,True,True,1.8099985806375116,0.4519851237430572,False,3.0
02,3t2,2,28,33.0,20.0,0.55,1.0,True,True,1.5919061376430363,0.5007752879124892,False,2.0
02,3t2,2,29,42.0,20.0,0.55,1.0,True,True,1.1247466015911414,0.7419373447293773,False,2.0
02,3t2,2,30,10.0,5.0,0.55,1.0,True,False,1.1915443357941058,0.6931471805599453,True,2.0
02,3t2,2,31,16.0,14.0,0.55,1.0,True,False,1.6753348234128538,0.1335313926245225,True,3.0
02,3t2,2,32,33.0,14.0,0.55,1.0,True,True,2.27716173290014,0.8574502318512216,False,3.0
02,3t2,2,33,10.0,5.0,0.55,1.0,True,False,1.1412829289856743,0.6931471805599453,True,1.0
02,3t2,2,34,37.0,20.0,0.55,1.0,True,True,1.3250813421325631,0.6151856390902335,False,2.0
02,3t2,2,35,23.0,20.0,0.55,1.0,True,True,2.1762492726143137,0.1397619423751586,False,3.0
02,3t2,2,36,9.0,7.0,0.55,1.0,True,True,1.308186407207586,0.2513144282809061,False,1.0
02,3t2,2,37,5.0,6.0,1.0,0.55,False,False,1.0241707502218276,0.1823215567939546,False,1.0
02,3t2,2,38,7.0,10.0,1.0,0.55,False,True,1.0410222906220667,0.3566749439387324,True,3.0
02,3t2,2,39,14.0,16.0,1.0,0.55,False,True,1.5085621314667603,0.1335313926245225,True,3.0
02,3t2,2,40,28.0,52.0,1.0,0.55,False,True,1.091739339939096,0.6190392084062235,True,3.0
02,3t2,2,41,5.0,9.0,1.0,0.55,False,False,1.776276816083481,0.5877866649021191,False,2.0
02,3t2,2,42,20.0,29.0,1.0,0.55,False,False,1.358405624894658,0.371563556432483,False,2.0
02,3t2,2,43,10.0,13.0,1.0,0.55,False,True,1.274244656521887,0.262364264467491,True,3.0
02,3t2,2,44,7.0,9.0,1.0,0.55,False,False,1.2595525964241006,0.2513144282809061,False,2.0
02,3t2,2,45,10.0,21.0,1.0,0.55,False,True,0.8409690117891842,0.7419373447293773,True,1.0
02,3t2,2,46,14.0,23.0,1.0,0.55,False,False,1.7929038500888623,0.496436886313891,False,3.0
02,3t2,2,47,5.0,10.0,1.0,0.55,False,True,1.5093010437889802,0.6931471805599453,True,2.0
02,3t2,2,48,7.0,11.0,1.0,0.55,False,False,1.3758182806063814,0.4519851237430572,False,2.0
02,3t2,3,49,29.0,28.0,0.55,1.0,True,True,0.9127800189912704,0.0350913198112701,False,2.0
02,3t2,3,50,66.0,28.0,0.55,1.0,True,True,1.2256681024023235,0.8574502318512216,False,2.0
02,3t2,3,51,42.0,20.0,0.55,1.0,True,False,1.0927365099528217,0.7419373447293773,True,2.0
02,3t2,3,52,20.0,20.0,0.55,1.0,True,True,1.308646569979402,0.0,False,2.0
02,3t2,3,53,5.0,5.0,0.55,1.0,True,True,1.2251277803011362,0.0,False,1.0
02,3t2,3,54,14.0,10.0,0.55,1.0,True,True,1.0410370568147158,0.3364722366212129,False,1.0
02,3t2,3,55,59.0,28.0,0.55,1.0,True,False,1.1263163382495804,0.7453329337305156,True,3.0
02,3t2,3,56,11.0,5.0,0.55,1.0,True,True,1.5247253864899903,0.7884573603642703,False,3.0
02,3t2,3,57,8.0,7.0,0.55,1.0,True,True,1.2077958866211702,0.1335313926245225,False,1.0
02,3t2,3,58,26.0,20.0,0.55,1.0,True,False,0.9570237503653232,0.262364264467491,True,2.0
02,3t2,3,59,11.0,10.0,0.55,1.0,True,True,1.4592403366573592,0.0953101798043249,False,2.0
02,3t2,3,60,5.0,5.0,0.55,1.0,True,True,0.9085180136999044,0.0,False,1.0
02,3t2,3,61,5.0,5.0,1.0,0.55,False,False,1.0911486922423137,0.0,False,1.0
02,3t2,3,62,5.0,8.0,1.0,0.55,False,True,2.2266746142936427,0.4700036292457356,True,3.0
02,3t2,3,63,5.0,6.0,1.0,0.55,False,False,1.4925839058746817,0.1823215567939546,False,1.0
02,3t2,3,64,14.0,14.0,1.0,0.55,False,True,2.0432435478519437,0.0,True,3.0
02,3t2,3,65,10.0,23.0,1.0,0.55,False,True,0.8744310118968315,0.8329091229351039,True,2.0
02,3t2,3,66,28.0,52.0,1.0,0.55,False,False,1.075097841092429,0.6190392084062235,False,3.0
02,3t2,3,67,14.0,18.0,1.0,0.55,False,False,1.8927344607673149,0.2513144282809061,False,2.0
02,3t2,3,68,7.0,7.0,1.0,0.55,False,False,1.1915633208986949,0.0,False,1.0
02,3t2,3,69,14.0,29.0,1.0,0.55,False,True,0.9908802187569564,0.7282385003712155,True,2.0
02,3t2,3,70,28.0,46.0,1.0,0.55,False,True,0.908375776091816,0.496436886313891,True,2.0
02,3t2,3,71,14.0,16.0,1.0,0.55,False,False,1.0580585591028466,0.1335313926245225,False,2.0
02,3t2,3,72,7.0,13.0,1.0,0.55,False,False,1.4083415727681654,0.6190392084062235,False,3.0
02,3t2,4,73,7.0,16.0,1.0,0.55,False,True,1.1784361758454942,0.8266785731844679,True,3.0
02,3t2,4,74,20.0,47.0,1.0,0.55,False,True,0.8408318971455628,0.8544153281560676,True,1.0
02,3t2,4,75,7.0,8.0,1.0,0.55,False,True,1.6920826991154172,0.1335313926245225,True,3.0
02,3t2,4,76,7.0,14.0,1.0,0.55,False,True,3.445835948808053,0.6931471805599453,True,
02,3t2,4,77,10.0,10.0,1.0,0.55,False,False,0.8918692824327223,0.0,False,1.0
02,3t2,4,78,20.0,42.0,1.0,0.55,False,True,1.1245443951602423,0.7419373447293773,True,2.0
02,3t2,4,79,14.0,23.0,1.0,0.55,False,True,2.1598847152126837,0.496436886313891,True,3.0
02,3t2,4,80,28.0,37.0,1.0,0.55,False,False,0.9907425014107644,0.2787134024690205,False,2.0
02,3t2,4,81,14.0,20.0,1.0,0.55,False,False,0.8575207080784821,0.3566749439387324,False,2.0
02,3t2,4,82,28.0,29.0,1.0,0.55,False,False,1.3251835000760934,0.0350913198112701,False,2.0
02,3t2,4,83,14.0,26.0,1.0,0.55,False,False,1.8095191314100416,0.6190392084062235,False,3.0
02,3t2,4,84,7.0,7.0,1.0,0.55,False,False,1.0079014196940363,0.0,False,1.0
02,3t2,4,85,29.0,20.0,0.55,1.0,True,True,1.2914300936809298,0.371563556432483,False,1.0
02,3t2,4,86,26.0,20.0,0.55,1.0,True,True,2.4275029675527264,0.262364264467491,False,1.0
02,3t2,4,87,46.0,28.0,0.55,1.0,True,True,1.174794651986332,0.496436886313891,False,2.0
02,3t2,4,88,10.0,7.0,0.55,1.0,True,True,1.1252926493594089,0.3566749439387324,False,2.0
02,3t2,4,89,16.0,10.0,0.55,1.0,True,True,1.7259840687847827,0.4700036292457356,False,3.0
02,3t2,4,90,7.0,5.0,0.55,1.0,True,True,1.793179284779853,0.3364722366212129,False,2.0
02,3t2,4,91,37.0,28.0,0.55,1.0,True,True,1.0747368227557672,0.2787134024690205,False,1.0
02,3t2,4,92,20.0,14.0,0.55,1.0,True,True,1.4090910323707249,0.3566749439387324,False,2.0
02,3t2,4,93,16.0,7.0,0.55,1.0,True,False,0.9073855371470928,0.8266785731844679,True,2.0
02,3t2,4,94,41.0,28.0,0.55,1.0,True,True,1.3248836559645838,0.3813675565291038,False,2.0
02,3t2,4,95,46.0,28.0,0.55,1.0,True,False,1.5087031636717256,0.496436886313891,True,3.0
02,3t2,4,96,6.0,5.0,0.55,1.0,True,False,1.5753643859329711,0.1823215567939546,True,2.0
02,3t2,5,97,9.0,5.0,0.55,1.0,True,True,1.746574168023017,0.5877866649021191,False,2.0
02,3t2,5,98,37.0,28.0,0.55,1.0,True,True,1.258418613117108,0.2787134024690205,False,1.0
02,3t2,5,99,20.0,14.0,0.55,1.0,True,False,1.0087162724344123,0.3566749439387324,True,3.0
02,3t2,5,100,29.0,28.0,0.55,1.0,True,True,0.9748118892557472,0.0350913198112701,False,1.0
02,3t2,5,101,26.0,14.0,0.55,1.0,True,True,1.359015559046398,0.6190392084062235,False,2.0
02,3t2,5,102,66.0,28.0,0.55,1.0,True,False,1.1919210243759153,0.8574502318512216,True,1.0
02,3t2,5,103,32.0,28.0,0.55,1.0,True,True,0.9913798584916692,0.1335313926245225,False,1.0
02,3t2,5,104,26.0,14.0,0.55,1.0,True,True,1.3919013762997707,0.6190392084062235,False,3.0
02,3t2,5,105,14.0,7.0,0.55,1.0,True,False,1.074720549808262,0.6931471805599453,True,3.0
02,3t2,5,106,10.0,10.0,0.55,1.0,True,True,0.8247451852416816,0.0,False,1.0
02,3t2,5,107,20.0,20.0,0.55,1.0,True,True,0.9083040545856136,0.0,False,1.0
02,3t2,5,108,33.0,20.0,0.55,1.0,True,True,1.775738302086694,0.5007752879124892,False,3.0
02,3t2,5,109,5.0,8.0,1.0,0.55,False,True,1.3248438776504372,0.4700036292457356,True,2.0
02,3t2,5,110,10.0,14.0,1.0,0.55,False,True,1.0410379608669589,0.3364722366212129,True,2.0
02,3t2,5,111,10.0,16.0,1.0,0.55,False,True,1.1123933255603902,0.4700036292457356,True,2.0
02,3t2,5,112,5.0,10.0,1.0,0.55,False,False,1.108084610885271,0.6931471805599453,False,3.0
02,3t2,5,113,20.0,37.0,1.0,0.55,False,True,0.9409105195859696,0.6151856390902335,True,1.0
02,3t2,5,114,20.0,26.0,1.0,0.55,False,False,1.4589525465808038,0.262364264467491,False,3.0
02,3t2,5,115,7.0,16.0,1.0,0.55,False,True,1.24141278107345,0.8266785731844679,True,2.0
02,3t2,5,116,28.0,66.0,1.0,0.55,False,True,0.8416027526591279,0.8574502318512216,True,2.0
02,3t2,5,117,28.0,41.0,1.0,0.55,False,False,1.5421805326741378,0.3813675565291038,False,3.0
02,3t2,5,118,14.0,33.0,1.0,0.55,False,False,1.5592731537662985,0.8574502318512216,False,3.0
02,3t2,5,119,10.0,13.0,1.0,0.55,False,True,1.609030099226004,0.262364264467491,True,2.0
02,3t2,5,120,10.0,18.0,1.0,0.55,False,True,1.5922068858071723,0.5877866649021191,True,3.0
02,3t2,6,121,21.0,10.0,0.55,1.0,True,True,1.0956746808919888,0.7419373447293773,False,2.0
02,3t2,6,122,11.0,7.0,0.55,1.0,True,True,1.158051899248676,0.4519851237430572,False,2.0
02,3t2,6,123,10.0,7.0,0.55,1.0,True,True,1.0577376204309985,0.3566749439387324,False,3.0
02,3t2,6,124,41.0,28.0,0.55,1.0,True,False,1.1259077064755587,0.3813675565291038,True,3.0
02,3t2,6,125,23.0,20.0,0.55,1.0,True,True,1.508819485105505,0.1397619423751586,False,3.0
02,3t2,6,126,7.0,7.0,0.55,1.0,True,True,0.7569626364101936,0.0,False,1.0
02,3t2,6,127,10.0,10.0,0.55,1.0,True,True,0.790893237113778,0.0,False,1.0
02,3t2,6,128,29.0,14.0,0.55,1.0,True,False,1.20796042419353,0.7282385003712155,True,2.0
02,3t2,6,129,23.0,10.0,0.55,1.0,True,False,1.1584891593547582,0.8329091229351039,True,2.0
02,3t2,6,130,14.0,7.0,0.55,1.0,True,False,1.7757437264021974,0.6931471805599453,True,3.0
02,3t2,6,131,14.0,14.0,0.55,1.0,True,True,1.4755726495158967,0.0,False,3.0
02,3t2,6,132,7.0,5.0,0.55,1.0,True,True,1.4920863755960738,0.3364722366212129,False,2.0
02,3t2,6,133,20.0,23.0,1.0,0.55,False,True,1.124482919583386,0.1397619423751586,True,3.0
02,3t2,6,134,7.0,10.0,1.0,0.55,False,False,1.5086787542518607,0.3566749439387324,False,2.0
02,3t2,6,135,10.0,10.0,1.0,0.55,False,True,1.676005329088582,0.0,True,3.0
02,3t2,6,136,20.0,20.0,1.0,0.55,False,False,1.241169892276048,0.0,False,2.0
02,3t2,6,137,20.0,37.0,1.0,0.55,False,True,0.773823217336087,0.6151856390902335,True,2.0
02,3t2,6,138,7.0,9.0,1.0,0.55,False,False,1.2415631551557451,0.2513144282809061,False,1.0
02,3t2,6,139,20.0,47.0,1.0,0.55,False,True,1.3253579822271604,0.8544153281560676,True,2.0
02,3t2,6,140,14.0,14.0,1.0,0.55,False,False,1.1917055585067828,0.0,False,3.0
02,3t2,6,141,28.0,66.0,1.0,0.55,False,True,1.0752415854554442,0.8574502318512216,True,2.0
02,3t2,6,142,10.0,11.0,1.0,0.55,False,False,1.5425756036584062,0.0953101798043249,False,2.0
02,3t2,6,143,20.0,33.0,1.0,0.55,False,True,2.527423983490678,0.5007752879124892,True,2.0
02,3t2,6,144,5.0,5.0,1.0,0.55,False,False,0.958194498478406,0.0,False,1.0
02,3t2,7,145,47.0,20.0,0.55,1.0,True,False,1.228845545928838,0.8544153281560676,True,3.0
02,3t2,7,146,29.0,20.0,0.55,1.0,True,True,1.5434154685208483,0.371563556432483,False,3.0
02,3t2,7,147,18.0,14.0,0.55,1.0,True,True,1.525140045281205,0.2513144282809061,False,3.0
02,3t2,7,148,13.0,7.0,0.55,1.0,True,False,0.9915148636796404,0.6190392084062235,True,3.0
02,3t2,7,149,16.0,14.0,0.55,1.0,True,True,1.0078474778892996,0.1335313926245225,False,3.0
02,3t2,7,150,23.0,14.0,0.55,1.0,True,True,1.0580570523489286,0.496436886313891,False,3.0
02,3t2,7,151,16.0,7.0,0.55,1.0,True,False,1.0078489846436725,0.8266785731844679,True,3.0
02,3t2,7,152,13.0,10.0,0.55,1.0,True,True,1.074493029905156,0.262364264467491,False,3.0
02,3t2,7,153,9.0,5.0,0.55,1.0,True,False,1.72594248236598,0.5877866649021191,True,4.0
02,3t2,7,154,14.0,10.0,0.55,1.0,True,True,1.7592526016373995,0.3364722366212129,False,3.0
02,3t2,7,155,8.0,5.0,0.55,1.0,True,False,1.2580410204823238,0.4700036292457356,True,3.0
02,3t2,7,156,8.0,5.0,0.55,1.0,True,True,2.2938246276585517,0.4700036292457356,False,4.0
02,3t2,7,157,28.0,46.0,1.0,0.55,False,False,1.0413769805909112,0.496436886313891,False,2.0
02,3t2,7,158,28.0,32.0,1.0,0.55,False,False,1.4085365467785778,0.1335313926245225,False,3.0
02,3t2,7,159,5.0,11.0,1.0,0.55,False,True,1.224919546852533,0.7884573603642703,True,2.0
02,3t2,7,160,5.0,5.0,1.0,0.55,False,False,1.242337325529178,0.0,False,1.0
02,3t2,7,161,20.0,23.0,1.0,0.55,False,True,1.6090282911204667,0.1397619423751586,True,3.0
02,3t2,7,162,5.0,7.0,1.0,0.55,False,True,1.1245392721953067,0.3364722366212129,True,2.0
02,3t2,7,163,20.0,33.0,1.0,0.55,False,True,2.0769511489156685,0.5007752879124892,True,4.0
02,3t2,7,164,28.0,29.0,1.0,0.55,False,False,1.1083494982958657,0.0350913198112701,False,2.0
02,3t2,7,165,5.0,11.0,1.0,0.55,False,True,0.62422420986519,0.7884573603642703,True,2.0
02,3t2,7,166,7.0,8.0,1.0,0.55,False,False,0.8916706922118465,0.1335313926245225,False,1.0
02,3t2,7,167,20.0,20.0,1.0,0.55,False,True,2.2109453045168266,0.0,True,3.0
02,3t2,7,168,10.0,23.0,1.0,0.55,False,True,1.6261007217044607,0.8329091229351039,True,3.0
02,3t2,8,169,20.0,26.0,1.0,0.55,False,False,1.613776978059832,0.262364264467491,False,3.0
02,3t2,8,170,10.0,21.0,1.0,0.55,False,True,1.209201387057881,0.7419373447293773,True,2.0
02,3t2,8,171,10.0,18.0,1.0,0.55,False,True,0.9579913879942978,0.5877866649021191,True,1.0
02,3t2,8,172,28.0,37.0,1.0,0.55,False,True,1.341600492527519,0.2787134024690205,True,2.0
02,3t2,8,173,5.0,7.0,1.0,0.55,False,False,1.224913218484275,0.3364722366212129,False,2.0
02,3t2,8,174,14.0,29.0,1.0,0.55,False,True,0.9235596408016136,0.7282385003712155,True,2.0
02,3t2,8,175,10.0,16.0,1.0,0.55,False,True,1.592711949857403,0.4700036292457356,True,3.0
02,3t2,8,176,20.0,42.0,1.0,0.55,False,True,0.774193577550264,0.7419373447293773,True,2.0
02,3t2,8,177,10.0,11.0,1.0,0.55,False,False,1.0743595314716003,0.0953101798043249,False,1.0
02,3t2,8,178,7.0,14.0,1.0,0.55,False,True,1.358318835845239,0.6931471805599453,True,3.0
02,3t2,8,179,20.0,29.0,1.0,0.55,False,False,1.3584128573156136,0.371563556432483,False,2.0
02,3t2,8,180,28.0,41.0,1.0,0.55,False,False,0.9575366495392076,0.3813675565291038,False,3.0
02,3t2,8,181,18.0,10.0,0.55,1.0,True,False,0.9911249156594124,0.5877866649021191,True,2.0
02,3t2,8,182,23.0,10.0,0.55,1.0,True,False,1.3923235688616842,0.8329091229351039,True,3.0
02,3t2,8,183,8.0,7.0,0.55,1.0,True,True,0.8239716175703791,0.1335313926245225,False,1.0
02,3t2,8,184,33.0,14.0,0.55,1.0,True,True,2.26110636148681,0.8574502318512216,False,3.0
02,3t2,8,185,5.0,5.0,0.55,1.0,True,True,2.477097183545027,0.0,False,2.0
02,3t2,8,186,29.0,14.0,0.55,1.0,True,True,1.2752445386932436,0.7282385003712155,False,3.0
02,3t2,8,187,59.0,28.0,0.55,1.0,True,False,1.2413558257603654,0.7453329337305156,True,3.0
02,3t2,8,188,21.0,10.0,0.55,1.0,True,False,2.243462569660551,0.7419373447293773,True,3.0
02,3t2,8,189,6.0,5.0,0.55,1.0,True,True,1.2253438488714892,0.1823215567939546,False,1.0
02,3t2,8,190,16.0,10.0,0.55,1.0,True,False,1.7263330330879398,0.4700036292457356,True,3.0
02,3t2,8,191,52.0,28.0,0.55,1.0,True,False,1.6757805213437678,0.6190392084062235,True,3.0
02,3t2,8,192,11.0,10.0,0.55,1.0,True,True,1.1078281612980732,0.0953101798043249,False,2.0
02,7t2,1,1,19.0,10.0,0.55,1.0,True,True,1.5441928000072984,0.6418538861723947,False,3.0
02,7t2,1,2,98.0,28.0,0.55,1.0,True,False,0.8904331999947388,1.252762968495368,True,3.0
02,7t2,1,3,52.0,20.0,0.55,1.0,True,False,1.7077154000289596,0.9555114450274363,True,3.0
02,7t2,1,4,66.0,28.0,0.55,1.0,True,False,0.6897622999968007,0.8574502318512216,True,2.0
02,7t2,1,5,17.0,10.0,0.55,1.0,True,False,1.3069451000192205,0.5306282510621704,True,2.0
02,7t2,1,6,24.0,7.0,0.55,1.0,True,False,0.7748586999951073,1.2321436812926323,True,2.0
02,7t2,1,7,13.0,5.0,0.55,1.0,True,False,1.224684500019109,0.9555114450274363,True,1.0
02,7t2,1,8,98.0,28.0,0.55,1.0,True,False,0.7236778999795206,1.252762968495368,True,2.0
02,7t2,1,9,54.0,28.0,0.55,1.0,True,True,0.9247814000118524,0.6567795363890705,False,1.0
02,7t2,1,10,42.0,20.0,0.55,1.0,True,True,1.141773500014125,0.7419373447293773,False,2.0
02,7t2,1,11,60.0,28.0,0.55,1.0,True,False,0.9256698000244796,0.7621400520468967,True,2.0
02,7t2,1,12,66.0,28.0,0.55,1.0,True,False,0.8902710999827832,0.8574502318512216,True,2.0
02,7t2,1,13,10.0,28.0,1.0,0.55,False,True,0.9255367000005776,1.029619417181158,True,1.0
02,7t2,1,14,7.0,24.0,1.0,0.55,False,True,1.1586788000422814,1.2321436812926323,True,1.0
02,7t2,1,15,7.0,12.0,1.0,0.55,False,True,1.5581037999945693,0.5389965007326869,True,3.0
02,7t2,1,16,5.0,9.0,1.0,0.55,False,False,1.1253642999799922,0.5877866649021191,False,2.0
02,7t2,1,17,5.0,13.0,1.0,0.55,False,True,1.2246115000452846,0.9555114450274363,True,2.0
02,7t2,1,18,5.0,8.0,1.0,0.55,False,False,1.574624600005336,0.4700036292457356,False,2.0
02,7t2,1,19,28.0,60.0,1.0,0.55,False,False,1.2060591999907049,0.7621400520468967,False,3.0
02,7t2,1,20,20.0,70.0,1.0,0.55,False,True,0.854624799976591,1.252762968495368,True,2.0
02,7t2,1,21,7.0,13.0,1.0,0.55,False,False,1.708311499969625,0.6190392084062235,False,2.0
02,7t2,1,22,5.0,10.0,1.0,0.55,False,True,1.491633300029207,0.6931471805599453,True,3.0
02,7t2,1,23,10.0,31.0,1.0,0.55,False,True,0.9593069999828004,1.1314021114911006,True,2.0
02,7t2,1,24,5.0,14.0,1.0,0.55,False,True,1.6412032000371255,1.029619417181158,True,3.0
02,7t2,2,25,7.0,15.0,1.0,0.55,False,True,0.8437538999714818,0.7621400520468967,True,1.0
02,7t2,2,26,28.0,98.0,1.0,0.55,False,True,1.8453335000085644,1.252762968495368,True,3.0
02,7t2,2,27,20.0,35.0,1.0,0.55,False,False,1.3241735000047117,0.5596157879354227,False,2.0
02,7t2,2,28,20.0,63.0,1.0,0.55,False,True,1.0224715000367866,1.1474024528375415,True,2.0
02,7t2,2,29,7.0,15.0,1.0,0.55,False,False,2.192218700016383,0.7621400520468967,False,2.0
02,7t2,2,30,7.0,16.0,1.0,0.55,False,True,1.6575739000109024,0.8266785731844679,True,3.0
02,7t2,2,31,20.0,47.0,1.0,0.55,False,True,0.9242301999474876,0.8544153281560676,True,2.0
02,7t2,2,32,28.0,80.0,1.0,0.55,False,True,0.8998988000093959,1.0498221244986776,True,1.0
02,7t2,2,33,14.0,27.0,1.0,0.55,False,True,1.1580196000286378,0.6567795363890705,True,1.0
02,7t2,2,34,20.0,57.0,1.0,0.55,False,True,0.874872799962759,1.0473189942805592,True,1.0
02,7t2,2,35,5.0,15.0,1.0,0.55,False,True,0.9758334000362084,1.0986122886681098,True,1.0
02,7t2,2,36,14.0,36.0,1.0,0.55,False,True,1.6079879999742843,0.9444616088408516,True,2.0
02,7t2,2,37,52.0,20.0,0.55,1.0,True,True,1.3240537999663218,0.9555114450274363,False,3.0
02,7t2,2,38,30.0,14.0,0.55,1.0,True,True,1.5914764999761246,0.7621400520468967,False,3.0
02,7t2,2,39,17.0,5.0,0.55,1.0,True,True,1.3733373999712055,1.2237754316221157,False,3.0
02,7t2,2,40,15.0,7.0,0.55,1.0,True,True,1.9573260000325376,0.7621400520468967,False,3.0
02,7t2,2,41,20.0,7.0,0.55,1.0,True,False,1.1084886000026015,1.0498221244986776,True,2.0
02,7t2,2,42,70.0,20.0,0.55,1.0,True,False,1.0587710000108927,1.252762968495368,True,2.0
02,7t2,2,43,10.0,5.0,0.55,1.0,True,False,1.290773899992928,0.6931471805599453,True,3.0
02,7t2,2,44,21.0,10.0,0.55,1.0,True,False,1.2914514000294162,0.7419373447293773,True,2.0
02,7t2,2,45,18.0,7.0,0.55,1.0,True,False,0.942649299977404,0.9444616088408516,True,2.0
02,7t2,2,46,21.0,10.0,0.55,1.0,True,False,1.357523399987258,0.7419373447293773,True,2.0
02,7t2,2,47,33.0,14.0,0.55,1.0,True,False,1.2408959000023287,0.8574502318512216,True,2.0
02,7t2,2,48,10.0,5.0,0.55,1.0,True,False,1.2093821999732768,0.6931471805599453,True,2.0
02,7t2,3,49,33.0,14.0,0.55,1.0,True,False,1.5489878000225872,0.8574502318512216,True,3.0
02,7t2,3,50,8.0,5.0,0.55,1.0,True,True,0.9579082999844104,0.4700036292457356,False,1.0
02,7t2,3,51,31.0,10.0,0.55,1.0,True,True,1.0087244999594702,1.1314021114911006,False,2.0
02,7t2,3,52,26.0,10.0,0.55,1.0,True,False,1.6917538000270582,0.9555114450274363,True,3.0
02,7t2,3,53,13.0,5.0,0.55,1.0,True,False,1.1745319999754429,0.9555114450274363,True,2.0
02,7t2,3,54,24.0,14.0,0.55,1.0,True,True,1.757229199982234,0.5389965007326869,False,3.0
02,7t2,3,55,54.0,28.0,0.55,1.0,True,False,0.9074028999893926,0.6567795363890705,True,3.0
02,7t2,3,56,80.0,28.0,0.55,1.0,True,False,0.890153399959658,1.0498221244986776,True,2.0
02,7t2,3,57,40.0,14.0,0.55,1.0,True,False,1.207338500011332,1.0498221244986776,True,2.0
02,7t2,3,58,35.0,20.0,0.55,1.0,True,True,1.0577850000117903,0.5596157879354227,False,2.0
02,7t2,3,59,14.0,5.0,0.55,1.0,True,True,1.2403858000179468,1.029619417181158,False,1.0
02,7t2,3,60,22.0,7.0,0.55,1.0,True,False,1.0248650999856466,1.1451323043030026,True,2.0
02,7t2,3,61,14.0,40.0,1.0,0.55,False,True,1.4428287000047249,1.0498221244986776,True,1.0
02,7t2,3,62,7.0,24.0,1.0,0.55,False,False,1.757099099981161,1.2321436812926323,False,3.0
02,7t2,3,63,20.0,52.0,1.0,0.55,False,True,0.8393644000170752,0.9555114450274363,True,2.0
02,7t2,3,64,14.0,44.0,1.0,0.55,False,True,0.925739799975446,1.1451323043030026,True,1.0
02,7t2,3,65,28.0,98.0,1.0,0.55,False,True,0.8943302999832667,1.252762968495368,True,1.0
02,7t2,3,66,14.0,49.0,1.0,0.55,False,True,1.0261564999818802,1.252762968495368,True,2.0
02,7t2,3,67,28.0,54.0,1.0,0.55,False,True,0.9902817999827676,0.6567795363890705,True,2.0
02,7t2,3,68,10.0,28.0,1.0,0.55,False,True,1.175503199978266,1.029619417181158,True,1.0
02,7t2,3,69,20.0,35.0,1.0,0.55,False,True,1.440444900014029,0.5596157879354227,True,3.0
02,7t2,3,70,10.0,31.0,1.0,0.55,False,True,0.857431299984512,1.1314021114911006,True,1.0
02,7t2,3,71,10.0,17.0,1.0,0.55,False,True,1.442093499994371,0.5306282510621704,True,3.0
02,7t2,3,72,14.0,33.0,1.0,0.55,False,True,0.8912482000305317,0.8574502318512216,True,2.0
02,7t2,4,73,7.0,20.0,1.0,0.55,False,True,0.6438498999923468,1.0498221244986776,True,1.0
02,7t2,4,74,10.0,17.0,1.0,0.55,False,False,1.5754490999970585,0.5306282510621704,False,3.0
02,7t2,4,75,28.0,54.0,1.0,0.55,False,True,1.1069802999845706,0.6567795363890705,True,3.0
02,7t2,4,76,7.0,18.0,1.0,0.55,False,False,1.0729696000344262,0.9444616088408516,False,2.0
02,7t2,4,77,7.0,22.0,1.0,0.55,False,True,1.2575182000291392,1.1451323043030026,True,2.0
02,7t2,4,78,5.0,13.0,1.0,0.55,False,True,0.674522600020282,0.9555114450274363,True,1.0
02,7t2,4,79,10.0,23.0,1.0,0.55,False,True,1.2429336999775558,0.8329091229351039,True,2.0
02,7t2,4,80,20.0,47.0,1.0,0.55,False,True,0.8732853999826915,0.8544153281560676,True,1.0
02,7t2,4,81,7.0,22.0,1.0,0.55,False,True,0.9239912999910302,1.1451323043030026,True,1.0
02,7t2,4,82,20.0,63.0,1.0,0.55,False,True,0.8043346999911876,1.1474024528375415,True,1.0
02,7t2,4,83,10.0,23.0,1.0,0.55,False,False,0.9090802000137046,0.8329091229351039,False,3.0
02,7t2,4,84,10.0,26.0,1.0,0.55,False,True,1.3586383999790996,0.9555114450274363,True,3.0
02,7t2,4,85,19.0,10.0,0.55,1.0,True,False,1.2239447000320354,0.6418538861723947,True,2.0
02,7t2,4,86,14.0,5.0,0.55,1.0,True,False,0.8087205999764251,1.029619417181158,True,1.0
02,7t2,4,87,49.0,14.0,0.55,1.0,True,False,0.4915863999631256,1.252762968495368,True,2.0
02,7t2,4,88,9.0,5.0,0.55,1.0,True,True,1.6588545000413717,0.5877866649021191,False,3.0
02,7t2,4,89,80.0,28.0,0.55,1.0,True,False,1.1253265999839923,1.0498221244986776,True,3.0
02,7t2,4,90,27.0,14.0,0.55,1.0,True,True,1.7397240999853238,0.6567795363890705,False,3.0
02,7t2,4,91,38.0,20.0,0.55,1.0,True,True,1.2076403999817558,0.6418538861723947,False,2.0
02,7t2,4,92,38.0,20.0,0.55,1.0,True,False,,0.6418538861723947,True,
02,7t2,4,93,44.0,14.0,0.55,1.0,True,False,0.4915763000026345,1.1451323043030026,True,1.0
02,7t2,4,94,22.0,7.0,0.55,1.0,True,False,1.1239580000401477,1.1451323043030026,True,2.0
02,7t2,4,95,13.0,7.0,0.55,1.0,True,False,0.8753211000002921,0.6190392084062235,True,2.0
02,7t2,4,96,60.0,28.0,0.55,1.0,True,False,0.908506599953398,0.7621400520468967,True,1.0
02,7t2,5,97,14.0,24.0,1.0,0.55,False,True,1.251197699981276,0.5389965007326869,True,3.0
02,7t2,5,98,28.0,66.0,1.0,0.55,False,True,1.0712734999833629,0.8574502318512216,True,2.0
02,7t2,5,99,5.0,14.0,1.0,0.55,False,True,0.5753486000467092,1.029619417181158,True,1.0
02,7t2,5,100,7.0,16.0,1.0,0.55,False,True,1.140743300027694,0.8266785731844679,True,2.0
02,7t2,5,101,20.0,70.0,1.0,0.55,False,True,0.6053926000022471,1.252762968495368,True,1.0
02,7t2,5,102,10.0,21.0,1.0,0.55,False,True,0.9245923999697254,0.7419373447293773,True,3.0
02,7t2,5,103,5.0,17.0,1.0,0.55,False,True,0.7586279999813996,1.2237754316221157,True,2.0
02,7t2,5,104,28.0,89.0,1.0,0.55,False,True,0.5642236000276171,1.1564318595569358,True,1.0
02,7t2,5,105,5.0,10.0,1.0,0.55,False,False,0.8921477000112645,0.6931471805599453,False,2.0
02,7t2,5,106,20.0,42.0,1.0,0.55,False,True,0.990266799984994,0.7419373447293773,True,3.0
02,7t2,5,107,7.0,20.0,1.0,0.55,False,True,0.9421159999911026,1.0498221244986776,True,3.0
02,7t2,5,108,28.0,80.0,1.0,0.55,False,True,0.6973205000394955,1.0498221244986776,True,1.0
02,7t2,5,109,15.0,5.0,0.55,1.0,True,False,0.8904843999771117,1.0986122886681098,True,2.0
02,7t2,5,110,57.0,20.0,0.55,1.0,True,True,1.4251635000109673,1.0473189942805592,False,3.0
02,7t2,5,111,47.0,20.0,0.55,1.0,True,True,1.0248479000292434,0.8544153281560676,False,3.0
02,7t2,5,112,49.0,28.0,0.55,1.0,True,True,1.3737357999781068,0.5596157879354227,False,3.0
02,7t2,5,113,42.0,20.0,0.55,1.0,True,True,1.5906123999739066,0.7419373447293773,False,3.0
02,7t2,5,114,13.0,7.0,0.55,1.0,True,False,0.8905690999818034,0.6190392084062235,True,4.0
02,7t2,5,115,15.0,7.0,0.55,1.0,True,False,0.9920641999924557,0.7621400520468967,True,2.0
02,7t2,5,116,27.0,14.0,0.55,1.0,True,True,0.8422985000069616,0.6567795363890705,False,2.0
02,7t2,5,117,40.0,14.0,0.55,1.0,True,False,0.8569018999696709,1.0498221244986776,True,1.0
02,7t2,5,118,35.0,10.0,0.55,1.0,True,False,1.4253376999986926,1.252762968495368,True,2.0
02,7t2,5,119,26.0,10.0,0.55,1.0,True,False,0.9753886000252692,0.9555114450274363,True,2.0
02,7t2,5,120,49.0,28.0,0.55,1.0,True,False,1.1074253999977373,0.5596157879354227,True,3.0
02,7t2,6,121,89.0,28.0,0.55,1.0,True,False,0.9112550999852828,1.1564318595569358,True,3.0
02,7t2,6,122,20.0,7.0,0.55,1.0,True,False,0.7092709999997169,1.0498221244986776,True,2.0
02,7t2,6,123,8.0,5.0,0.55,1.0,True,True,0.6752070999937132,0.4700036292457356,False,2.0
02,7t2,6,124,49.0,14.0,0.55,1.0,True,False,1.3919772999943234,1.252762968495368,True,2.0
02,7t2,6,125,36.0,14.0,0.55,1.0,True,False,1.2575585999875187,0.9444616088408516,True,3.0
02,7t2,6,126,16.0,7.0,0.55,1.0,True,False,1.3589802000205964,0.8266785731844679,True,3.0
02,7t2,6,127,31.0,10.0,0.55,1.0,True,False,0.8401831000228412,1.1314021114911006,True,1.0
02,7t2,6,128,36.0,14.0,0.55,1.0,True,False,0.8919467999949262,0.9444616088408516,True,2.0
02,7t2,6,129,16.0,7.0,0.55,1.0,True,False,1.2900311999837868,0.8266785731844679,True,3.0
02,7t2,6,130,28.0,10.0,0.55,1.0,True,False,0.7244900000514463,1.029619417181158,True,2.0
02,7t2,6,131,57.0,20.0,0.55,1.0,True,False,0.557513399980877,1.0473189942805592,True,1.0
02,7t2,6,132,24.0,14.0,0.55,1.0,True,True,0.974782100005541,0.5389965007326869,False,2.0
02,7t2,6,133,20.0,38.0,1.0,0.55,False,True,1.2581517999642529,0.6418538861723947,True,3.0
02,7t2,6,134,14.0,49.0,1.0,0.55,False,True,1.0586273000226356,1.252762968495368,True,1.0
02,7t2,6,135,28.0,66.0,1.0,0.55,False,True,0.8870846999925561,0.8574502318512216,True,1.0
02,7t2,6,136,28.0,73.0,1.0,0.55,False,True,0.6193938000361356,0.9582549309731871,True,2.0
02,7t2,6,137,14.0,33.0,1.0,0.55,False,True,1.4077608999796212,0.8574502318512216,True,3.0
02,7t2,6,138,28.0,89.0,1.0,0.55,False,True,1.2650871999794615,1.1564318595569358,True,1.0
02,7t2,6,139,28.0,73.0,1.0,0.55,False,True,0.5198136999970302,0.9582549309731871,True,1.0
02,7t2,6,140,14.0,30.0,1.0,0.55,False,True,0.8578994999988936,0.7621400520468967,True,2.0
02,7t2,6,141,7.0,13.0,1.0,0.55,False,True,1.2250692000379786,0.6190392084062235,True,3.0
02,7t2,6,142,20.0,52.0,1.0,0.55,False,True,0.6412112999823876,0.9555114450274363,True,1.0
02,7t2,6,143,5.0,9.0,1.0,0.55,False,True,1.456771800003537,0.5877866649021191,True,3.0
02,7t2,6,144,7.0,18.0,1.0,0.55,False,True,1.223875700030476,0.9444616088408516,True,2.0
02,7t2,7,145,17.0,5.0,0.55,1.0,True,False,0.8584920999710519,1.2237754316221157,True,1.0
02,7t2,7,146,12.0,7.0,0.55,1.0,True,True,0.8753504999913275,0.5389965007326869,False,2.0
02,7t2,7,147,15.0,5.0,0.55,1.0,True,False,0.8750920000020415,1.0986122886681098,True,2.0
02,7t2,7,148,18.0,7.0,0.55,1.0,True,False,0.8405564000131562,0.9444616088408516,True,2.0
02,7t2,7,149,24.0,7.0,0.55,1.0,True,False,0.8232312999898426,1.2321436812926323,True,1.0
02,7t2,7,150,89.0,28.0,0.55,1.0,True,False,0.5412406999967345,1.1564318595569358,True,1.0
02,7t2,7,151,30.0,14.0,0.55,1.0,True,False,0.8258372999844141,0.7621400520468967,True,3.0
02,7t2,7,152,47.0,20.0,0.55,1.0,True,False,0.7238240999867998,0.8544153281560676,True,1.0
02,7t2,7,153,70.0,20.0,0.55,1.0,True,False,0.7250264000030882,1.252762968495368,True,1.0
02,7t2,7,154,23.0,10.0,0.55,1.0,True,False,0.9405739000066832,0.8329091229351039,True,2.0
02,7t2,7,155,73.0,28.0,0.55,1.0,True,False,0.9905615999595908,0.9582549309731871,True,3.0
02,7t2,7,156,9.0,5.0,0.55,1.0,True,False,0.8238604000071348,0.5877866649021191,True,1.0
02,7t2,7,157,28.0,60.0,1.0,0.55,False,False,1.1703442999860556,0.7621400520468967,False,3.0
02,7t2,7,158,10.0,19.0,1.0,0.55,False,False,1.823891900014104,0.6418538861723947,False,3.0
02,7t2,7,159,14.0,44.0,1.0,0.55,False,True,0.9591903000254832,1.1451323043030026,True,2.0
02,7t2,7,160,10.0,21.0,1.0,0.55,False,False,1.173812499968335,0.7419373447293773,False,3.0
02,7t2,7,161,5.0,11.0,1.0,0.55,False,True,1.541732299956493,0.7884573603642703,True,3.0
02,7t2,7,162,5.0,8.0,1.0,0.55,False,False,1.4239357999758795,0.4700036292457356,False,2.0
02,7t2,7,163,14.0,36.0,1.0,0.55,False,True,0.6228729999857023,0.9444616088408516,True,2.0
02,7t2,7,164,14.0,24.0,1.0,0.55,False,False,2.0411509999539135,0.5389965007326869,False,3.0
02,7t2,7,165,20.0,38.0,1.0,0.55,False,True,0.709713299991563,0.6418538861723947,True,2.0
02,7t2,7,166,20.0,42.0,1.0,0.55,False,False,1.7577961000497453,0.7419373447293773,False,3.0
02,7t2,7,167,28.0,49.0,1.0,0.55,False,False,0.5573407000046586,0.5596157879354227,False,2.0
02,7t2,7,168,20.0,57.0,1.0,0.55,False,True,0.9067330000106608,1.0473189942805592,True,2.0
02,7t2,8,169,12.0,7.0,0.55,1.0,True,False,0.8757101999944972,0.5389965007326869,True,1.0
02,7t2,8,170,17.0,10.0,0.55,1.0,True,True,1.2758358999854025,0.5306282510621704,False,3.0
02,7t2,8,171,11.0,5.0,0.55,1.0,True,True,1.7072886999812908,0.7884573603642703,False,3.0
02,7t2,8,172,73.0,28.0,0.55,1.0,True,False,0.7923410999937914,0.9582549309731871,True,2.0
02,7t2,8,173,35.0,20.0,0.55,1.0,True,False,0.6578393999952823,0.5596157879354227,True,2.0
02,7t2,8,174,63.0,20.0,0.55,1.0,True,False,0.4590143999667049,1.1474024528375415,True,2.0
02,7t2,8,175,35.0,10.0,0.55,1.0,True,False,0.8253904999583028,1.252762968495368,True,2.0
02,7t2,8,176,28.0,10.0,0.55,1.0,True,False,0.8250658999895677,1.029619417181158,True,1.0
02,7t2,8,177,11.0,5.0,0.55,1.0,True,False,1.8077118000364576,0.7884573603642703,True,3.0
02,7t2,8,178,23.0,10.0,0.55,1.0,True,True,2.496786899981089,0.8329091229351039,False,3.0
02,7t2,8,179,63.0,20.0,0.55,1.0,True,False,0.5050075000035008,1.1474024528375415,True,1.0
02,7t2,8,180,44.0,14.0,0.55,1.0,True,False,0.7258856000262028,1.1451323043030026,True,1.0
02,7t2,8,181,5.0,15.0,1.0,0.55,False,True,0.5594406999879595,1.0986122886681098,True,2.0
02,7t2,8,182,28.0,49.0,1.0,0.55,False,False,1.908593899977859,0.5596157879354227,False,3.0
02,7t2,8,183,14.0,40.0,1.0,0.55,False,True,0.457612400001409,1.0498221244986776,True,2.0
02,7t2,8,184,5.0,11.0,1.0,0.55,False,True,1.007737700012541,0.7884573603642703,True,3.0
02,7t2,8,185,7.0,12.0,1.0,0.55,False,False,1.3412772999727167,0.5389965007326869,False,3.0
02,7t2,8,186,10.0,26.0,1.0,0.55,False,True,0.5243489000131376,0.9555114450274363,True,2.0
02,7t2,8,187,5.0,17.0,1.0,0.55,False,True,0.3397606000070823,1.2237754316221157,True,1.0
02,7t2,8,188,10.0,35.0,1.0,0.55,False,True,0.8900086000213037,1.252762968495368,True,1.0
02,7t2,8,189,14.0,27.0,1.0,0.55,False,False,1.075340799987316,0.6567795363890705,False,3.0
02,7t2,8,190,14.0,30.0,1.0,0.55,False,True,0.841502399998717,0.7621400520468967,True,2.0
02,7t2,8,191,10.0,19.0,1.0,0.55,False,False,1.2411010999931025,0.6418538861723947,False,3.0
02,7t2,8,192,10.0,35.0,1.0,0.55,False,True,0.4730980999883627,1.252762968495368,True,1.0
03,3t2,1,1,10.0,13.0,1.0,0.55,False,False,0.9109954191662836,0.262364264467491,False,1.0
03,3t2,1,2,5.0,11.0,1.0,0.55,False,False,1.2410870207877591,0.7884573603642703,False,1.0
03,3t2,1,3,20.0,45.0,1.0,0.55,False,False,0.8906231966029594,0.8109302162163288,False,1.0
03,3t2,1,4,5.0,20.0,1.0,0.55,False,False,0.3558622235887014,1.3862943611198906,False,1.0
03,3t2,1,5,7.0,11.0,1.0,0.55,False,False,1.1745900347486895,0.4519851237430572,False,1.0
03,3t2,1,6,5.0,13.0,1.0,0.55,False,False,0.8736294185946321,0.9555114450274363,False,1.0
03,3t2,1,7,14.0,22.0,1.0,0.55,False,False,0.9406760686124472,0.4519851237430572,False,1.0
03,3t2,1,8,14.0,38.0,1.0,0.55,False,False,0.8571446221976373,0.9985288301111273,False,1.0
03,3t2,1,9,28.0,30.0,1.0,0.55,False,False,0.9072454089946688,0.0689928714869514,False,1.0
03,3t2,1,10,10.0,13.0,1.0,0.55,False,False,0.77349474489165,0.262364264467491,False,1.0
03,3t2,1,11,7.0,11.0,1.0,0.55,False,False,0.9238712375972682,0.4519851237430572,False,1.0
03,3t2,1,12,10.0,15.0,1.0,0.55,False,False,0.823715469334303,0.4054651081081644,False,1.0
03,3t2,1,13,13.0,10.0,0.55,1.0,True,True,0.8080054460133113,0.262364264467491,False,2.0
03,3t2,1,14,77.0,28.0,0.55,1.0,True,True,0.3227311067330731,1.01160091167848,False,2.0
03,3t2,1,15,55.0,20.0,0.55,1.0,True,True,0.8739226329872452,1.01160091167848,False,1.0
03,3t2,1,16,19.0,7.0,0.55,1.0,True,True,0.9742203375081148,0.9985288301111273,False,1.0
03,3t2,1,17,6.0,5.0,0.55,1.0,True,True,0.857376361014758,0.1823215567939546,False,1.0
03,3t2,1,18,93.0,28.0,0.55,1.0,True,True,0.9740347053720484,1.200394982978052,False,1.0
03,3t2,1,19,30.0,28.0,0.55,1.0,True,True,0.3228640024626656,0.0689928714869514,False,1.0
03,3t2,1,20,38.0,20.0,0.55,1.0,True,True,0.8574140298715065,0.6418538861723947,False,1.0
03,3t2,1,21,112.0,28.0,0.55,1.0,True,True,0.9238929348593956,1.3862943611198906,False,1.0
03,3t2,1,22,13.0,10.0,0.55,1.0,True,True,0.7237212251348524,0.262364264467491,False,1.0
03,3t2,1,23,9.0,5.0,0.55,1.0,True,True,0.9741223984765952,0.5877866649021191,False,1.0
03,3t2,1,24,15.0,10.0,0.55,1.0,True,True,0.9240062427851968,0.4054651081081644,False,1.0
03,3t2,2,25,46.0,14.0,0.55,1.0,True,True,0.9615521498217348,1.1895840668738364,False,1.0
03,3t2,2,26,13.0,7.0,0.55,1.0,True,True,0.8603503927060814,0.6190392084062235,False,1.0
03,3t2,2,27,16.0,7.0,0.55,1.0,True,True,1.4919631230914092,0.8266785731844679,False,1.0
03,3t2,2,28,10.0,10.0,0.55,1.0,True,True,0.6234518475975932,0.0,False,1.0
03,3t2,2,29,33.0,10.0,0.55,1.0,True,True,1.0406856817044172,1.1939224684724346,False,2.0
03,3t2,2,30,66.0,20.0,0.55,1.0,True,True,0.8569830981341653,1.1939224684724346,False,1.0
03,3t2,2,31,26.0,20.0,0.55,1.0,True,True,0.8737683413437622,0.262364264467491,False,3.0
03,3t2,2,32,30.0,28.0,0.55,1.0,True,True,0.3227500918365251,0.0689928714869514,False,1.0
03,3t2,2,33,13.0,7.0,0.55,1.0,True,True,0.8738819506197615,0.6190392084062235,False,3.0
03,3t2,2,34,38.0,14.0,0.55,1.0,True,True,0.6899919268107624,0.9985288301111273,False,4.0
03,3t2,2,35,6.0,5.0,0.55,1.0,True,True,0.8235961343925737,0.1823215567939546,False,1.0
03,3t2,2,36,21.0,20.0,0.55,1.0,True,True,0.0224280381662538,0.048790164169432,False,2.0
03,3t2,2,37,5.0,16.0,1.0,0.55,False,False,0.8079072056316932,1.1631508098056809,False,2.0
03,3t2,2,38,28.0,64.0,1.0,0.55,False,False,0.8741733569058283,0.8266785731844679,False,1.0
03,3t2,2,39,20.0,66.0,1.0,0.55,False,False,0.6236016189777729,1.1939224684724346,False,1.0
03,3t2,2,40,28.0,30.0,1.0,0.55,False,False,0.7237661264152848,0.0689928714869514,False,1.0
03,3t2,2,41,10.0,40.0,1.0,0.55,False,False,0.8569267455222302,1.3862943611198906,False,1.0
03,3t2,2,42,5.0,13.0,1.0,0.55,False,False,1.1410731887845031,0.9555114450274363,False,1.0
03,3t2,2,43,14.0,22.0,1.0,0.55,False,False,0.874092896225136,0.4519851237430572,False,1.0
03,3t2,2,44,14.0,38.0,1.0,0.55,False,False,0.8576939848262555,0.9985288301111273,False,1.0
03,3t2,2,45,7.0,16.0,1.0,0.55,False,False,0.4729195564942188,0.8266785731844679,False,1.0
03,3t2,2,46,28.0,64.0,1.0,0.55,False,False,1.0078055901194602,0.8266785731844679,False,1.0
03,3t2,2,47,20.0,38.0,1.0,0.55,False,False,0.6900395402481081,0.6418538861723947,False,1.0
03,3t2,2,48,5.0,7.0,1.0,0.55,False,False,0.9240987574994506,0.3364722366212129,False,1.0
03,3t2,3,49,14.0,56.0,1.0,0.55,False,False,0.7613590441869746,1.3862943611198906,False,2.0
03,3t2,3,50,14.0,56.0,1.0,0.55,False,False,0.7072662624741497,1.3862943611198906,False,1.0
03,3t2,3,51,20.0,31.0,1.0,0.55,False,False,0.7733968058619212,0.4382549309311553,False,1.0
03,3t2,3,52,7.0,19.0,1.0,0.55,False,False,0.7736134771330399,0.9985288301111273,False,1.0
03,3t2,3,53,14.0,18.0,1.0,0.55,False,False,1.708864627466042,0.2513144282809061,False,2.0
03,3t2,3,54,28.0,36.0,1.0,0.55,False,False,0.8236663491425134,0.2513144282809061,False,4.0
03,3t2,3,55,7.0,13.0,1.0,0.55,False,False,2.226551361789475,0.6190392084062235,False,1.0
03,3t2,3,56,28.0,112.0,1.0,0.55,False,False,0.7572914102038482,1.3862943611198906,False,1.0
03,3t2,3,57,14.0,15.0,1.0,0.55,False,False,0.7901718031407654,0.0689928714869514,False,1.0
03,3t2,3,58,20.0,55.0,1.0,0.55,False,False,0.8241289227207744,1.01160091167848,False,2.0
03,3t2,3,59,28.0,93.0,1.0,0.55,False,False,0.4894139961197652,1.200394982978052,False,1.0
03,3t2,3,60,7.0,23.0,1.0,0.55,False,False,0.2059100329042849,1.1895840668738364,False,1.0
03,3t2,3,61,31.0,20.0,0.55,1.0,True,True,0.3238783494762458,0.4382549309311553,False,2.0
03,3t2,3,62,64.0,28.0,0.55,1.0,True,True,0.7903276015404117,0.8266785731844679,False,1.0
03,3t2,3,63,13.0,5.0,0.55,1.0,True,True,0.8739895328799321,0.9555114450274363,False,1.0
03,3t2,3,64,22.0,10.0,0.55,1.0,True,True,0.673388398172392,0.7884573603642703,False,1.0
03,3t2,3,65,26.0,14.0,0.55,1.0,True,True,0.807136651466891,0.6190392084062235,False,1.0
03,3t2,3,66,36.0,28.0,0.55,1.0,True,True,0.8072665336894715,0.2513144282809061,False,1.0
03,3t2,3,67,9.0,7.0,0.55,1.0,True,False,1.391910718177371,0.2513144282809061,True,1.0
03,3t2,3,68,22.0,10.0,0.55,1.0,True,True,0.7238348344126848,0.7884573603642703,False,1.0
03,3t2,3,69,11.0,7.0,0.55,1.0,True,True,0.9240405967830156,0.4519851237430572,False,1.0
03,3t2,3,70,45.0,20.0,0.55,1.0,True,True,0.8071863743589347,0.8109302162163288,False,3.0
03,3t2,3,71,22.0,14.0,0.55,1.0,True,True,0.1726252271055273,0.4519851237430572,False,1.0
03,3t2,3,72,46.0,14.0,0.55,1.0,True,True,0.7070152372035068,1.1895840668738364,False,1.0
03,3t2,4,73,32.0,14.0,0.55,1.0,True,True,0.6776618547955877,0.8266785731844679,False,3.0
03,3t2,4,74,23.0,7.0,0.55,1.0,True,True,1.3748406983977477,1.1895840668738364,False,1.0
03,3t2,4,75,55.0,20.0,0.55,1.0,True,True,0.790094355970723,1.01160091167848,False,1.0
03,3t2,4,76,56.0,14.0,0.55,1.0,True,True,0.8065438943140038,1.3862943611198906,False,1.0
03,3t2,4,77,11.0,5.0,0.55,1.0,True,True,1.808831448735873,0.7884573603642703,False,1.0
03,3t2,4,78,20.0,5.0,0.55,1.0,True,True,1.024255731164871,1.3862943611198906,False,1.0
03,3t2,4,79,16.0,5.0,0.55,1.0,True,True,0.205885020783171,1.1631508098056809,False,1.0
03,3t2,4,80,19.0,7.0,0.55,1.0,True,True,0.4897078132143946,0.9985288301111273,False,1.0
03,3t2,4,81,5.0,5.0,0.55,1.0,True,False,0.290363311616602,0.0,True,2.0
03,3t2,4,82,13.0,5.0,0.55,1.0,True,True,0.8571964545462833,0.9555114450274363,False,2.0
03,3t2,4,83,36.0,28.0,0.55,1.0,True,True,0.5067208776800101,0.2513144282809061,False,1.0
03,3t2,4,84,7.0,7.0,0.55,1.0,True,True,0.6566332900492853,0.0,False,1.0
03,3t2,4,85,10.0,33.0,1.0,0.55,False,False,0.573142224649871,1.1939224684724346,False,2.0
03,3t2,4,86,28.0,53.0,1.0,0.55,False,False,0.5939131344075577,0.6380874033769178,False,2.0
03,3t2,4,87,20.0,80.0,1.0,0.55,False,False,1.058095022557609,1.3862943611198906,False,1.0
03,3t2,4,88,10.0,19.0,1.0,0.55,False,False,0.4064575271569026,0.6418538861723947,False,1.0
03,3t2,4,89,10.0,15.0,1.0,0.55,False,False,1.2078673067753698,0.4054651081081644,False,1.0
03,3t2,4,90,14.0,32.0,1.0,0.55,False,False,0.3558926600271093,0.8266785731844679,False,1.0
03,3t2,4,91,7.0,19.0,1.0,0.55,False,False,0.1887188700802653,0.9985288301111273,False,1.0
03,3t2,4,92,5.0,5.0,1.0,0.55,False,False,0.5564995204003935,0.0,False,1.0
03,3t2,4,93,7.0,7.0,1.0,0.55,False,False,0.4058521132683381,0.0,False,1.0
03,3t2,4,94,10.0,22.0,1.0,0.55,False,False,0.5398134216247854,0.7884573603642703,False,1.0
03,3t2,4,95,28.0,44.0,1.0,0.55,False,False,0.7404043104015727,0.4519851237430572,False,1.0
03,3t2,4,96,28.0,77.0,1.0,0.55,False,False,0.6571935013070629,1.01160091167848,False,1.0
03,3t2,5,97,15.0,10.0,0.55,1.0,True,True,0.8446271099455771,0.4054651081081644,False,2.0
03,3t2,5,98,16.0,7.0,0.55,1.0,True,True,0.3561506163678132,0.8266785731844679,False,1.0
03,3t2,5,99,15.0,14.0,0.55,1.0,True,True,0.6234500394930365,0.0689928714869514,False,1.0
03,3t2,5,100,9.0,7.0,0.55,1.0,True,True,0.7067464322317107,0.2513144282809061,False,1.0
03,3t2,5,101,26.0,14.0,0.55,1.0,True,True,0.7400056232072529,0.6190392084062235,False,1.0
03,3t2,5,102,44.0,28.0,0.55,1.0,True,True,0.6733603725406425,0.4519851237430572,False,1.0
03,3t2,5,103,21.0,20.0,0.55,1.0,True,True,1.809052037568108,0.048790164169432,False,1.0
03,3t2,5,104,44.0,28.0,0.55,1.0,True,True,1.0072917868946971,0.4519851237430572,False,1.0
03,3t2,5,105,19.0,10.0,0.55,1.0,True,True,0.4061504506244091,0.6418538861723947,False,1.0
03,3t2,5,106,27.0,10.0,0.55,1.0,True,True,1.1577375902961649,0.9932517730102834,False,1.0
03,3t2,5,107,22.0,14.0,0.55,1.0,True,True,0.72344096883171,0.4519851237430572,False,1.0
03,3t2,5,108,11.0,7.0,0.55,1.0,True,True,0.7902055544382165,0.4519851237430572,False,1.0
03,3t2,5,109,10.0,27.0,1.0,0.55,False,False,0.8247174609623471,0.9932517730102834,False,1.0
03,3t2,5,110,20.0,45.0,1.0,0.55,False,False,0.3899537456563848,0.8109302162163288,False,1.0
03,3t2,5,111,20.0,66.0,1.0,0.55,False,False,0.7741462654630027,1.1939224684724346,False,1.0
03,3t2,5,112,10.0,33.0,1.0,0.55,False,False,0.7757226318427399,1.1939224684724346,False,1.0
03,3t2,5,113,5.0,20.0,1.0,0.55,False,False,0.3395178566952381,1.3862943611198906,False,1.0
03,3t2,5,114,28.0,77.0,1.0,0.55,False,False,0.8575903201272013,1.01160091167848,False,1.0
03,3t2,5,115,28.0,44.0,1.0,0.55,False,False,0.82401410804232,0.4519851237430572,False,1.0
03,3t2,5,116,14.0,15.0,1.0,0.55,False,False,0.723516909249156,0.0689928714869514,False,1.0
03,3t2,5,117,28.0,112.0,1.0,0.55,False,False,0.807342172756762,1.3862943611198906,False,1.0
03,3t2,5,118,14.0,46.0,1.0,0.55,False,False,0.7736882121498638,1.1895840668738364,False,1.0
03,3t2,5,119,20.0,80.0,1.0,0.55,False,False,0.3059790121170067,1.3862943611198906,False,1.0
03,3t2,5,120,7.0,28.0,1.0,0.55,False,False,0.89047884953834,1.3862943611198906,False,1.0
03,3t2,6,121,7.0,9.0,1.0,0.55,False,False,0.9110605109526588,0.2513144282809061,False,1.0
03,3t2,6,122,28.0,53.0,1.0,0.55,False,False,0.3727258180242643,0.6380874033769178,False,1.0
03,3t2,6,123,5.0,16.0,1.0,0.55,False,False,0.6899286431289511,1.1631508098056809,False,4.0
03,3t2,6,124,5.0,6.0,1.0,0.55,False,False,0.8571485397587821,0.1823215567939546,False,1.0
03,3t2,6,125,10.0,19.0,1.0,0.55,False,False,0.8739054559882931,0.6418538861723947,False,2.0
03,3t2,6,126,14.0,46.0,1.0,0.55,False,False,0.873767738641618,1.1895840668738364,False,1.0
03,3t2,6,127,14.0,26.0,1.0,0.55,False,False,0.8569680305899965,0.6190392084062235,False,1.0
03,3t2,6,128,14.0,26.0,1.0,0.55,False,False,1.0409382137313798,0.6190392084062235,False,2.0
03,3t2,6,129,10.0,40.0,1.0,0.55,False,False,0.8405257246667759,1.3862943611198906,False,2.0
03,3t2,6,130,7.0,23.0,1.0,0.55,False,False,0.7903709960628191,1.1895840668738364,False,1.0
03,3t2,6,131,5.0,9.0,1.0,0.55,False,False,1.0908669291838748,0.5877866649021191,False,3.0
03,3t2,6,132,20.0,26.0,1.0,0.55,False,False,0.8572341234066698,0.262364264467491,False,1.0
03,3t2,6,133,31.0,20.0,0.55,1.0,True,True,0.8580842341962409,0.4382549309311553,False,2.0
03,3t2,6,134,40.0,10.0,0.55,1.0,True,True,0.9241734925144556,1.3862943611198906,False,1.0
03,3t2,6,135,7.0,7.0,0.55,1.0,True,True,0.4567427406837225,0.0,False,2.0
03,3t2,6,136,32.0,14.0,0.55,1.0,True,True,0.6900663604738213,0.8266785731844679,False,1.0
03,3t2,6,137,28.0,7.0,0.55,1.0,True,True,0.957508021207076,1.3862943611198906,False,1.0
03,3t2,6,138,15.0,14.0,0.55,1.0,True,True,0.5566176499396533,0.0689928714869514,False,2.0
03,3t2,6,139,56.0,14.0,0.55,1.0,True,False,0.8072611093739397,1.3862943611198906,True,2.0
03,3t2,6,140,19.0,10.0,0.55,1.0,True,False,0.7403313834929577,0.6418538861723947,True,2.0
03,3t2,6,141,112.0,28.0,0.55,1.0,True,False,0.92461738233942,1.3862943611198906,True,2.0
03,3t2,6,142,23.0,7.0,0.55,1.0,True,False,0.7737445647599088,1.1895840668738364,True,3.0
03,3t2,6,143,16.0,5.0,0.55,1.0,True,True,0.7399583111218817,1.1631508098056809,False,2.0
03,3t2,6,144,9.0,5.0,0.55,1.0,True,True,0.6568791923564277,0.5877866649021191,False,3.0
03,3t2,7,145,20.0,31.0,1.0,0.55,False,False,0.7442257407274084,0.4382549309311553,False,1.0
03,3t2,7,146,5.0,7.0,1.0,0.55,False,False,0.8403768573389243,0.3364722366212129,False,3.0
03,3t2,7,147,5.0,6.0,1.0,0.55,False,False,0.7233662338167051,0.1823215567939546,False,3.0
03,3t2,7,148,20.0,21.0,1.0,0.55,False,False,0.6563235013582016,0.048790164169432,False,1.0
03,3t2,7,149,7.0,9.0,1.0,0.55,False,False,0.8906569479004247,0.2513144282809061,False,1.0
03,3t2,7,150,20.0,55.0,1.0,0.55,False,False,0.6073045641696808,1.01160091167848,False,1.0
03,3t2,7,151,14.0,18.0,1.0,0.55,False,False,1.4751576893741287,0.2513144282809061,False,1.0
03,3t2,7,152,10.0,10.0,1.0,0.55,False,False,0.2558592402147042,0.0,False,1.0
03,3t2,7,153,5.0,9.0,1.0,0.55,False,False,1.074222416827979,0.5877866649021191,False,2.0
03,3t2,7,154,5.0,11.0,1.0,0.55,False,False,1.3745511002180135,0.7884573603642703,False,1.0
03,3t2,7,155,7.0,13.0,1.0,0.55,False,False,0.4561966929159382,0.6190392084062235,False,1.0
03,3t2,7,156,10.0,27.0,1.0,0.55,False,False,0.3060525417295423,0.9932517730102834,False,1.0
03,3t2,7,157,20.0,5.0,0.55,1.0,True,True,0.6915007905936648,1.3862943611198906,False,3.0
03,3t2,7,158,18.0,14.0,0.55,1.0,True,True,0.6901486292608183,0.2513144282809061,False,2.0
03,3t2,7,159,18.0,14.0,0.55,1.0,True,True,0.2396468650022427,0.2513144282809061,False,2.0
03,3t2,7,160,5.0,5.0,0.55,1.0,True,True,0.7573534884832043,0.0,False,1.0
03,3t2,7,161,38.0,20.0,0.55,1.0,True,True,0.1724001180081984,0.6418538861723947,False,1.0
03,3t2,7,162,53.0,28.0,0.55,1.0,True,True,0.5733236378709989,0.6380874033769178,False,2.0
03,3t2,7,163,11.0,5.0,0.55,1.0,True,False,,0.7884573603642703,True,
03,3t2,7,164,77.0,28.0,0.55,1.0,True,True,0.456487797851878,1.01160091167848,False,1.0
03,3t2,7,165,28.0,7.0,0.55,1.0,True,True,2.544127259263405,1.3862943611198906,False,2.0
03,3t2,7,166,38.0,14.0,0.55,1.0,True,True,0.2560132305080174,0.9985288301111273,False,2.0
03,3t2,7,167,45.0,20.0,0.55,1.0,True,True,1.157850295518017,0.8109302162163288,False,2.0
03,3t2,7,168,7.0,5.0,0.55,1.0,True,True,0.7904180067997686,0.3364722366212129,False,1.0
03,3t2,8,169,93.0,28.0,0.55,1.0,True,True,0.7778622229870926,1.200394982978052,False,1.0
03,3t2,8,170,26.0,20.0,0.55,1.0,True,True,0.3560243503543461,0.262364264467491,False,1.0
03,3t2,8,171,40.0,10.0,0.55,1.0,True,True,0.4396229980138741,1.3862943611198906,False,2.0
03,3t2,8,172,27.0,10.0,0.55,1.0,True,True,0.6235103096641836,0.9932517730102834,False,2.0
03,3t2,8,173,66.0,20.0,0.55,1.0,True,True,0.6234714354031894,1.1939224684724346,False,2.0
03,3t2,8,174,53.0,28.0,0.55,1.0,True,True,0.7237887277297261,0.6380874033769178,False,1.0
03,3t2,8,175,7.0,5.0,0.55,1.0,True,True,0.6732784051073111,0.3364722366212129,False,1.0
03,3t2,8,176,80.0,20.0,0.55,1.0,True,True,1.2079064823883527,1.3862943611198906,False,2.0
03,3t2,8,177,80.0,20.0,0.55,1.0,True,True,1.1411262265355615,1.3862943611198906,False,2.0
03,3t2,8,178,33.0,10.0,0.55,1.0,True,True,0.6734893507127424,1.1939224684724346,False,1.0
03,3t2,8,179,64.0,28.0,0.55,1.0,True,True,0.7066756147777937,0.8266785731844679,False,1.0
03,3t2,8,180,10.0,10.0,0.55,1.0,True,True,1.1243855832526322,0.0,False,2.0
03,3t2,8,181,28.0,36.0,1.0,0.55,False,False,0.7914477227059251,0.2513144282809061,False,2.0
03,3t2,8,182,7.0,28.0,1.0,0.55,False,False,0.272890687081599,1.3862943611198906,False,4.0
03,3t2,8,183,7.0,7.0,1.0,0.55,False,False,1.074464401574005,0.0,False,4.0
03,3t2,8,184,20.0,26.0,1.0,0.55,False,False,0.5400083956355957,0.262364264467491,False,4.0
03,3t2,8,185,10.0,10.0,1.0,0.55,False,False,0.7403057686697139,0.0,False,4.0
03,3t2,8,186,28.0,93.0,1.0,0.55,False,False,0.3231463682259345,1.200394982978052,False,1.0
03,3t2,8,187,20.0,38.0,1.0,0.55,False,False,1.2751592563981262,0.6418538861723947,False,1.0
03,3t2,8,188,10.0,22.0,1.0,0.55,False,False,0.6901332603665651,0.7884573603642703,False,1.0
03,3t2,8,189,5.0,5.0,1.0,0.55,False,False,0.6398830035395804,0.0,False,1.0
03,3t2,8,190,14.0,32.0,1.0,0.55,False,False,0.5901067716240505,0.8266785731844679,False,1.0
03,3t2,8,191,20.0,21.0,1.0,0.55,False,False,0.3563079215200559,0.048790164169432,False,1.0
03,3t2,8,192,7.0,16.0,1.0,0.55,False,False,0.6904551030911534,0.8266785731844679,False,4.0
03,7t2,1,1,10.0,14.0,1.0,0.55,False,False,0.8443114000256173,0.3364722366212129,False,1.0
03,7t2,1,2,14.0,43.0,1.0,0.55,False,True,0.8594718999811448,1.122142786078304,True,1.0
03,7t2,1,3,14.0,27.0,1.0,0.55,False,True,1.1576536999782403,0.6567795363890705,True,1.0
03,7t2,1,4,10.0,26.0,1.0,0.55,False,True,1.091220300004352,0.9555114450274363,True,1.0
03,7t2,1,5,7.0,16.0,1.0,0.55,False,False,0.8232524999766753,0.8266785731844679,False,1.0
03,7t2,1,6,14.0,43.0,1.0,0.55,False,True,0.8403167999931469,1.122142786078304,True,1.0
03,7t2,1,7,10.0,12.0,1.0,0.55,False,False,0.9401023000246056,0.1823215567939546,False,1.0
03,7t2,1,8,7.0,10.0,1.0,0.55,False,False,0.809410999994725,0.3566749439387324,False,1.0
03,7t2,1,9,14.0,20.0,1.0,0.55,False,False,0.8406790999579243,0.3566749439387324,False,1.0
03,7t2,1,10,7.0,25.0,1.0,0.55,False,True,0.6910531999892555,1.2729656758128876,True,1.0
03,7t2,1,11,10.0,19.0,1.0,0.55,False,False,0.7742890000227476,0.6418538861723947,False,1.0
03,7t2,1,12,5.0,9.0,1.0,0.55,False,False,1.024414400046254,0.5877866649021191,False,1.0
03,7t2,1,13,26.0,10.0,0.55,1.0,True,False,0.9252498000278422,0.9555114450274363,True,1.0
03,7t2,1,14,18.0,7.0,0.55,1.0,True,False,0.8412326000398025,0.9444616088408516,True,1.0
03,7t2,1,15,39.0,20.0,0.55,1.0,True,True,0.7261086999787665,0.6678293725756554,False,1.0
03,7t2,1,16,6.0,5.0,0.55,1.0,True,False,1.2594047000166029,0.1823215567939546,True,2.0
03,7t2,1,17,17.0,10.0,0.55,1.0,True,False,0.8584419999969555,0.5306282510621704,True,1.0
03,7t2,1,18,15.0,5.0,0.55,1.0,True,False,0.8242831000243314,1.0986122886681098,True,1.0
03,7t2,1,19,102.0,28.0,0.55,1.0,True,False,0.7083873000228778,1.292768303109067,True,1.0
03,7t2,1,20,13.0,5.0,0.55,1.0,True,True,0.8912727999850176,0.9555114450274363,False,1.0
03,7t2,1,21,6.0,5.0,0.55,1.0,True,False,0.9242396000190638,0.1823215567939546,True,1.0
03,7t2,1,22,36.0,10.0,0.55,1.0,True,False,0.8919784000026993,1.2809338454620642,True,1.0
03,7t2,1,23,75.0,28.0,0.55,1.0,True,False,0.8089336000267053,0.9852836033611064,True,1.0
03,7t2,1,24,7.0,5.0,0.55,1.0,True,False,1.0087246000184678,0.3364722366212129,True,1.0
03,7t2,2,25,43.0,14.0,0.55,1.0,True,False,0.7600332000292802,1.122142786078304,True,1.0
03,7t2,2,26,11.0,7.0,0.55,1.0,True,False,1.2428590000490658,0.4519851237430572,True,1.0
03,7t2,2,27,64.0,28.0,0.55,1.0,True,False,1.1754000000073574,0.8266785731844679,True,1.0
03,7t2,2,28,23.0,10.0,0.55,1.0,True,False,1.1070660999975956,0.8329091229351039,True,1.0
03,7t2,2,29,8.0,5.0,0.55,1.0,True,False,0.0725854999618604,0.4700036292457356,True,1.0
03,7t2,2,30,34.0,20.0,0.55,1.0,True,False,0.8094647999969453,0.5306282510621704,True,1.0
03,7t2,2,31,8.0,5.0,0.55,1.0,True,False,0.5745623999973617,0.4700036292457356,True,1.0
03,7t2,2,32,47.0,28.0,0.55,1.0,True,False,0.8738156000035815,0.5179430915348546,True,1.0
03,7t2,2,33,55.0,28.0,0.55,1.0,True,True,0.7762691999669187,0.6751286750572669,False,1.0
03,7t2,2,34,55.0,28.0,0.55,1.0,True,False,0.8752536999527081,0.6751286750572669,True,1.0
03,7t2,2,35,13.0,7.0,0.55,1.0,True,False,0.9245763999642804,0.6190392084062235,True,1.0
03,7t2,2,36,32.0,14.0,0.55,1.0,True,False,0.5910158999613486,0.8266785731844679,True,1.0
03,7t2,2,37,10.0,26.0,1.0,0.55,False,True,0.4580659000203013,0.9555114450274363,True,1.0
03,7t2,2,38,14.0,23.0,1.0,0.55,False,False,0.690994900010935,0.496436886313891,False,1.0
03,7t2,2,39,28.0,35.0,1.0,0.55,False,True,0.8579759999992973,0.2231435513142097,True,1.0
03,7t2,2,40,28.0,40.0,1.0,0.55,False,False,0.8413557999884063,0.3566749439387324,False,1.0
03,7t2,2,41,20.0,39.0,1.0,0.55,False,True,0.7449871000135317,0.6678293725756554,True,1.0
03,7t2,2,42,7.0,11.0,1.0,0.55,False,True,0.9079645000165328,0.4519851237430572,True,1.0
03,7t2,2,43,20.0,39.0,1.0,0.55,False,True,0.6588790999958292,0.6678293725756554,True,1.0
03,7t2,2,44,14.0,32.0,1.0,0.55,False,True,0.7738666000077501,0.8266785731844679,True,1.0
03,7t2,2,45,10.0,31.0,1.0,0.55,False,False,0.6235748000326566,1.1314021114911006,False,1.0
03,7t2,2,46,7.0,21.0,1.0,0.55,False,False,0.5754917999729514,1.0986122886681098,False,2.0
03,7t2,2,47,20.0,29.0,1.0,0.55,False,True,0.7414524999912828,0.371563556432483,True,1.0
03,7t2,2,48,5.0,8.0,1.0,0.55,False,True,1.0417563000228256,0.4700036292457356,True,1.0
03,7t2,3,49,40.0,28.0,0.55,1.0,True,False,0.3426934999879449,0.3566749439387324,True,2.0
03,7t2,3,50,72.0,20.0,0.55,1.0,True,False,0.7079079999821261,1.2809338454620642,True,1.0
03,7t2,3,51,31.0,10.0,0.55,1.0,True,False,0.7087484999792792,1.1314021114911006,True,1.0
03,7t2,3,52,25.0,7.0,0.55,1.0,True,False,1.640292500029318,1.2729656758128876,True,1.0
03,7t2,3,53,87.0,28.0,0.55,1.0,True,False,0.3597633999888785,1.13370360847938,True,1.0
03,7t2,3,54,17.0,14.0,0.55,1.0,True,False,0.8418241000035778,0.1941560144409574,True,1.0
03,7t2,3,55,14.0,10.0,0.55,1.0,True,True,0.925814500020337,0.3364722366212129,False,1.0
03,7t2,3,56,11.0,7.0,0.55,1.0,True,True,1.1410455000004731,0.4519851237430572,False,1.0
03,7t2,3,57,36.0,10.0,0.55,1.0,True,False,0.6575121000060165,1.2809338454620642,True,1.0
03,7t2,3,58,10.0,7.0,0.55,1.0,True,True,0.9410945000126958,0.3566749439387324,False,1.0
03,7t2,3,59,27.0,14.0,0.55,1.0,True,False,0.6886924999998882,0.6567795363890705,True,1.0
03,7t2,3,60,37.0,14.0,0.55,1.0,True,False,0.4742399000096782,0.9718605830289658,True,1.0
03,7t2,3,61,5.0,13.0,1.0,0.55,False,True,1.3259051999775693,0.9555114450274363,True,1.0
03,7t2,3,62,10.0,23.0,1.0,0.55,False,False,0.9230478000244772,0.8329091229351039,False,1.0
03,7t2,3,63,5.0,18.0,1.0,0.55,False,True,0.6111412000027769,1.2809338454620642,True,1.0
03,7t2,3,64,5.0,15.0,1.0,0.55,False,True,0.2247800999903404,1.0986122886681098,True,2.0
03,7t2,3,65,10.0,17.0,1.0,0.55,False,False,0.5418283999898108,0.5306282510621704,False,1.0
03,7t2,3,66,20.0,25.0,1.0,0.55,False,True,0.5247558999690227,0.2231435513142097,True,1.0
03,7t2,3,67,10.0,31.0,1.0,0.55,False,False,0.3241552000399679,1.1314021114911006,False,2.0
03,7t2,3,68,10.0,36.0,1.0,0.55,False,True,0.5415259000146762,1.2809338454620642,True,1.0
03,7t2,3,69,14.0,20.0,1.0,0.55,False,False,0.3088324000127613,0.3566749439387324,False,1.0
03,7t2,3,70,14.0,27.0,1.0,0.55,False,False,0.4090615000459365,0.6567795363890705,False,2.0
03,7t2,3,71,20.0,62.0,1.0,0.55,False,True,0.4328489999752491,1.1314021114911006,True,1.0
03,7t2,3,72,7.0,18.0,1.0,0.55,False,True,0.2929192000301555,0.9444616088408516,True,1.0
03,7t2,4,73,17.0,10.0,0.55,1.0,True,False,0.6257433000137098,0.5306282510621704,True,1.0
03,7t2,4,74,8.0,7.0,0.55,1.0,True,False,0.9922050000168384,0.1335313926245225,True,1.0
03,7t2,4,75,8.0,7.0,0.55,1.0,True,False,0.7922042999998524,0.1335313926245225,True,1.0
03,7t2,4,76,51.0,14.0,0.55,1.0,True,False,0.6107456999598142,1.292768303109067,True,1.0
03,7t2,4,77,27.0,14.0,0.55,1.0,True,False,0.2575820999918505,0.6567795363890705,True,1.0
03,7t2,4,78,21.0,7.0,0.55,1.0,True,False,0.8747599999769591,1.0986122886681098,True,1.0
03,7t2,4,79,47.0,28.0,0.55,1.0,True,False,0.4575608999584801,0.5179430915348546,True,1.0
03,7t2,4,80,19.0,10.0,0.55,1.0,True,True,0.7593796000001021,0.6418538861723947,False,1.0
03,7t2,4,81,87.0,28.0,0.55,1.0,True,False,0.6248061999795027,1.13370360847938,True,1.0
03,7t2,4,82,26.0,10.0,0.55,1.0,True,False,0.6747334999963357,0.9555114450274363,True,1.0
03,7t2,4,83,7.0,5.0,0.55,1.0,True,False,0.8907280000275932,0.3364722366212129,True,1.0
03,7t2,4,84,31.0,10.0,0.55,1.0,True,False,0.8234691999969357,1.1314021114911006,True,1.0
03,7t2,4,85,5.0,6.0,1.0,0.55,False,False,0.9750659999554044,0.1823215567939546,False,1.0
03,7t2,4,86,28.0,64.0,1.0,0.55,False,False,0.4040326000540517,0.8266785731844679,False,1.0
03,7t2,4,87,20.0,53.0,1.0,0.55,False,True,0.5074432999826683,0.9745596399981308,True,1.0
03,7t2,4,88,14.0,51.0,1.0,0.55,False,False,0.8731122000026801,1.292768303109067,False,1.0
03,7t2,4,89,5.0,7.0,1.0,0.55,False,False,0.6118473999667629,0.3364722366212129,False,1.0
03,7t2,4,90,5.0,7.0,1.0,0.55,False,True,0.7397668000194813,0.3364722366212129,True,1.0
03,7t2,4,91,14.0,37.0,1.0,0.55,False,True,0.6247996999882162,0.9718605830289658,True,1.0
03,7t2,4,92,28.0,35.0,1.0,0.55,False,True,0.6752574000274763,0.2231435513142097,True,1.0
03,7t2,4,93,28.0,47.0,1.0,0.55,False,False,0.3917031000019051,0.5179430915348546,False,1.0
03,7t2,4,94,10.0,19.0,1.0,0.55,False,False,0.6246887000161792,0.6418538861723947,False,1.0
03,7t2,4,95,20.0,29.0,1.0,0.55,False,True,0.774100799986627,0.371563556432483,True,1.0
03,7t2,4,96,28.0,102.0,1.0,0.55,False,True,0.6120501999976113,1.292768303109067,True,1.0
03,7t2,5,97,29.0,20.0,0.55,1.0,True,False,0.8757129000150599,0.371563556432483,True,1.0
03,7t2,5,98,64.0,28.0,0.55,1.0,True,True,0.4239465999999012,0.8266785731844679,False,1.0
03,7t2,5,99,62.0,20.0,0.55,1.0,True,False,0.5093412999995053,1.1314021114911006,True,1.0
03,7t2,5,100,20.0,14.0,0.55,1.0,True,True,0.8098021000041626,0.3566749439387324,False,1.0
03,7t2,5,101,9.0,5.0,0.55,1.0,True,False,0.8572166999801993,0.5877866649021191,True,1.0
03,7t2,5,102,46.0,20.0,0.55,1.0,True,False,0.4236193000105999,0.8329091229351039,True,1.0
03,7t2,5,103,18.0,7.0,0.55,1.0,True,False,0.7742914000409513,0.9444616088408516,True,1.0
03,7t2,5,104,18.0,5.0,0.55,1.0,True,False,0.7085734999854765,1.2809338454620642,True,1.0
03,7t2,5,105,9.0,5.0,0.55,1.0,True,True,0.2577875999850789,0.5877866649021191,False,1.0
03,7t2,5,106,62.0,20.0,0.55,1.0,True,False,0.9762499000061666,1.1314021114911006,True,1.0
03,7t2,5,107,25.0,20.0,0.55,1.0,True,False,0.4244201999972574,0.2231435513142097,True,1.0
03,7t2,5,108,23.0,14.0,0.55,1.0,True,False,0.8736755999852903,0.496436886313891,True,1.0
03,7t2,5,109,5.0,6.0,1.0,0.55,False,False,0.8259190000244416,0.1823215567939546,False,1.0
03,7t2,5,110,28.0,75.0,1.0,0.55,False,False,1.6653338000178053,0.9852836033611064,False,1.0
03,7t2,5,111,28.0,102.0,1.0,0.55,False,True,0.8613647000165656,1.292768303109067,True,1.0
03,7t2,5,112,20.0,46.0,1.0,0.55,False,True,0.8075237000011555,0.8329091229351039,True,1.0
03,7t2,5,113,28.0,87.0,1.0,0.55,False,False,2.44818970002234,1.13370360847938,False,1.0
03,7t2,5,114,7.0,8.0,1.0,0.55,False,False,1.1577763999812305,0.1335313926245225,False,1.0
03,7t2,5,115,7.0,10.0,1.0,0.55,False,True,0.8597589000127641,0.3566749439387324,True,2.0
03,7t2,5,116,7.0,13.0,1.0,0.55,False,False,0.6910966000286294,0.6190392084062235,False,1.0
03,7t2,5,117,20.0,62.0,1.0,0.55,False,True,0.4778540999977849,1.1314021114911006,True,1.0
03,7t2,5,118,14.0,17.0,1.0,0.55,False,False,0.6410815999842612,0.1941560144409574,False,1.0
03,7t2,5,119,20.0,72.0,1.0,0.55,False,False,0.5806179000064162,1.2809338454620642,False,1.0
03,7t2,5,120,14.0,32.0,1.0,0.55,False,False,0.5412975999643095,0.8266785731844679,False,1.0
03,7t2,6,121,102.0,28.0,0.55,1.0,True,True,0.393923099967651,1.292768303109067,False,1.0
03,7t2,6,122,29.0,20.0,0.55,1.0,True,False,0.7405451999511499,0.371563556432483,True,1.0
03,7t2,6,123,14.0,10.0,0.55,1.0,True,False,0.6912776999524795,0.3364722366212129,True,1.0
03,7t2,6,124,23.0,14.0,0.55,1.0,True,False,0.7404167000204325,0.496436886313891,True,1.0
03,7t2,6,125,15.0,5.0,0.55,1.0,True,False,0.5405730999773226,1.0986122886681098,True,1.0
03,7t2,6,126,18.0,5.0,0.55,1.0,True,False,0.8082338999956704,1.2809338454620642,True,1.0
03,7t2,6,127,37.0,14.0,0.55,1.0,True,False,0.8756356999511041,0.9718605830289658,True,1.0
03,7t2,6,128,51.0,14.0,0.55,1.0,True,False,0.7074387999600731,1.292768303109067,True,1.0
03,7t2,6,129,75.0,28.0,0.55,1.0,True,True,1.040093900053705,0.9852836033611064,False,1.0
03,7t2,6,130,39.0,20.0,0.55,1.0,True,True,0.9718770000035876,0.6678293725756554,False,4.0
03,7t2,6,131,35.0,28.0,0.55,1.0,True,True,0.4242675999994674,0.2231435513142097,False,1.0
03,7t2,6,132,12.0,10.0,0.55,1.0,True,False,0.6252647000365528,0.1823215567939546,True,1.0
03,7t2,6,133,10.0,23.0,1.0,0.55,False,False,0.2075877999887154,0.8329091229351039,False,3.0
03,7t2,6,134,5.0,8.0,1.0,0.55,False,False,0.3911629000212713,0.4700036292457356,False,1.0
03,7t2,6,135,20.0,72.0,1.0,0.55,False,False,0.2123168000252917,1.2809338454620642,False,1.0
03,7t2,6,136,20.0,46.0,1.0,0.55,False,False,0.4070978999953354,0.8329091229351039,False,1.0
03,7t2,6,137,28.0,87.0,1.0,0.55,False,False,0.3264038999913907,1.13370360847938,False,1.0
03,7t2,6,138,10.0,14.0,1.0,0.55,False,False,0.275666999979876,0.3364722366212129,False,1.0
03,7t2,6,139,10.0,17.0,1.0,0.55,False,False,0.4424479999579489,0.5306282510621704,False,1.0
03,7t2,6,140,28.0,40.0,1.0,0.55,False,False,0.774440000008326,0.3566749439387324,False,1.0
03,7t2,6,141,20.0,53.0,1.0,0.55,False,False,0.723902800003998,0.9745596399981308,False,1.0
03,7t2,6,142,14.0,37.0,1.0,0.55,False,False,0.2084649000316858,0.9718605830289658,False,1.0
03,7t2,6,143,5.0,13.0,1.0,0.55,False,True,0.6744344999897294,0.9555114450274363,True,1.0
03,7t2,6,144,28.0,47.0,1.0,0.55,False,False,0.2398084999877028,0.5179430915348546,False,1.0
03,7t2,7,145,28.0,55.0,1.0,0.55,False,False,0.6590033000102231,0.6751286750572669,False,1.0
03,7t2,7,146,7.0,25.0,1.0,0.55,False,False,0.675104999972973,1.2729656758128876,False,1.0
03,7t2,7,147,28.0,64.0,1.0,0.55,False,False,0.6070727000478797,0.8266785731844679,False,3.0
03,7t2,7,148,5.0,9.0,1.0,0.55,False,False,0.6257122000097297,0.5877866649021191,False,1.0
03,7t2,7,149,20.0,34.0,1.0,0.55,False,False,4.140385599981528,0.5306282510621704,False,1.0
03,7t2,7,150,28.0,75.0,1.0,0.55,False,False,0.4848563999985344,0.9852836033611064,False,1.0
03,7t2,7,151,7.0,21.0,1.0,0.55,False,False,0.8237995000090592,1.0986122886681098,False,1.0
03,7t2,7,152,5.0,11.0,1.0,0.55,False,False,0.3253870000480532,0.7884573603642703,False,1.0
03,7t2,7,153,14.0,51.0,1.0,0.55,False,False,0.2901750999735668,1.292768303109067,False,1.0
03,7t2,7,154,20.0,34.0,1.0,0.55,False,False,0.9411724999663704,0.5306282510621704,False,1.0
03,7t2,7,155,7.0,18.0,1.0,0.55,False,False,0.4260336000006646,0.9444616088408516,False,1.0
03,7t2,7,156,7.0,13.0,1.0,0.55,False,False,0.5925921000307142,0.6190392084062235,False,1.0
03,7t2,7,157,10.0,7.0,0.55,1.0,True,True,1.2419447999564,0.3566749439387324,False,2.0
03,7t2,7,158,46.0,20.0,0.55,1.0,True,True,0.4086724999942817,0.8329091229351039,False,2.0
03,7t2,7,159,25.0,7.0,0.55,1.0,True,True,0.2405824000016423,1.2729656758128876,False,2.0
03,7t2,7,160,20.0,14.0,0.55,1.0,True,True,0.7076385000255243,0.3566749439387324,False,1.0
03,7t2,7,161,25.0,20.0,0.55,1.0,True,False,0.8256700000492287,0.2231435513142097,True,1.0
03,7t2,7,162,35.0,28.0,0.55,1.0,True,True,0.5577949999715202,0.2231435513142097,False,1.0
03,7t2,7,163,72.0,20.0,0.55,1.0,True,True,0.2581122999545187,1.2809338454620642,False,1.0
03,7t2,7,164,16.0,7.0,0.55,1.0,True,True,0.6132843999658348,0.8266785731844679,False,1.0
03,7t2,7,165,12.0,10.0,0.55,1.0,True,True,1.17477639997378,0.1823215567939546,False,1.0
03,7t2,7,166,11.0,5.0,0.55,1.0,True,True,0.4798248999867951,0.7884573603642703,False,1.0
03,7t2,7,167,11.0,5.0,0.55,1.0,True,True,0.6577669999678619,0.7884573603642703,False,1.0
03,7t2,7,168,43.0,14.0,0.55,1.0,True,True,0.0913064999622292,1.122142786078304,False,2.0
03,7t2,8,169,23.0,10.0,0.55,1.0,True,True,0.810732799989637,0.8329091229351039,False,1.0
03,7t2,8,170,19.0,10.0,0.55,1.0,True,True,0.2729568000067957,0.6418538861723947,False,2.0
03,7t2,8,171,40.0,28.0,0.55,1.0,True,True,0.2069985999842174,0.3566749439387324,False,1.0
03,7t2,8,172,53.0,20.0,0.55,1.0,True,False,,0.9745596399981308,True,
03,7t2,8,173,16.0,7.0,0.55,1.0,True,True,0.540977299970109,0.8266785731844679,False,1.0
03,7t2,8,174,13.0,5.0,0.55,1.0,True,False,0.7256740999873728,0.9555114450274363,True,2.0
03,7t2,8,175,13.0,7.0,0.55,1.0,True,False,0.7080836999812448,0.6190392084062235,True,2.0
03,7t2,8,176,53.0,20.0,0.55,1.0,True,True,0.3080655999947623,0.9745596399981308,False,2.0
03,7t2,8,177,21.0,7.0,0.55,1.0,True,True,0.2892249000142044,1.0986122886681098,False,1.0
03,7t2,8,178,34.0,20.0,0.55,1.0,True,True,0.7072540000080778,0.5306282510621704,False,1.0
03,7t2,8,179,17.0,14.0,0.55,1.0,True,True,0.6907027999986894,0.1941560144409574,False,1.0
03,7t2,8,180,32.0,14.0,0.55,1.0,True,True,0.6578800000134208,0.8266785731844679,False,1.0
03,7t2,8,181,5.0,15.0,1.0,0.55,False,False,0.756839299981948,1.0986122886681098,False,2.0
03,7t2,8,182,14.0,17.0,1.0,0.55,False,False,0.5909854000201165,0.1941560144409574,False,1.0
03,7t2,8,183,28.0,55.0,1.0,0.55,False,True,0.3604779000161784,0.6751286750572669,True,1.0
03,7t2,8,184,7.0,16.0,1.0,0.55,False,False,0.458668900013464,0.8266785731844679,False,1.0
03,7t2,8,185,10.0,12.0,1.0,0.55,False,False,0.676224800001421,0.1823215567939546,False,1.0
03,7t2,8,186,14.0,23.0,1.0,0.55,False,False,0.674499599961564,0.496436886313891,False,2.0
03,7t2,8,187,5.0,11.0,1.0,0.55,False,False,0.8762950000236742,0.7884573603642703,False,2.0
03,7t2,8,188,7.0,11.0,1.0,0.55,False,True,1.9416970000020228,0.4519851237430572,True,1.0
03,7t2,8,189,10.0,36.0,1.0,0.55,False,False,0.2736103999777697,1.2809338454620642,False,2.0
03,7t2,8,190,5.0,18.0,1.0,0.55,False,False,0.6112237999914214,1.2809338454620642,False,1.0
03,7t2,8,191,20.0,25.0,1.0,0.55,False,False,0.2910874999943189,0.2231435513142097,False,1.0
03,7t2,8,192,7.0,8.0,1.0,0.55,False,False,0.5422701999777928,0.1335313926245225,False,1.0
04,3t2,1,1,14.0,24.0,1.0,0.55,False,False,1.998735531006332,0.5389965007326869,False,3.0
04,3t2,1,2,14.0,15.0,1.0,0.55,False,False,1.0406968562156038,0.0689928714869514,False,1.0
04,3t2,1,3,28.0,91.0,1.0,0.55,False,False,1.1245155405226797,1.1786549963416462,False,1.0
04,3t2,1,4,20.0,25.0,1.0,0.55,False,False,1.474704743777707,0.2231435513142097,False,2.0
04,3t2,1,5,14.0,45.0,1.0,0.55,False,True,1.158425669805638,1.1676051601550612,True,2.0
04,3t2,1,6,7.0,12.0,1.0,0.55,False,True,0.3560429473459408,0.5389965007326869,True,1.0
04,3t2,1,7,20.0,65.0,1.0,0.55,False,False,2.0431911388327535,1.1786549963416462,False,3.0
04,3t2,1,8,7.0,22.0,1.0,0.55,False,True,0.7736133406901757,1.1451323043030026,True,1.0
04,3t2,1,9,10.0,15.0,1.0,0.55,False,True,1.2409922405118152,0.4054651081081644,True,2.0
04,3t2,1,10,14.0,18.0,1.0,0.55,False,True,1.25786036537599,0.2513144282809061,True,2.0
04,3t2,1,11,28.0,30.0,1.0,0.55,False,False,0.9407775881609268,0.0689928714869514,False,1.0
04,3t2,1,12,5.0,16.0,1.0,0.55,False,True,0.3729472343356974,1.1631508098056809,True,1.0
04,3t2,1,13,41.0,20.0,0.55,1.0,True,True,2.1263965737589103,0.7178397931503168,False,3.0
04,3t2,1,14,24.0,10.0,0.55,1.0,True,False,0.7402251514218392,0.8754687373538999,True,1.0
04,3t2,1,15,7.0,7.0,0.55,1.0,True,False,0.9574896131830712,0.0,True,1.0
04,3t2,1,16,19.0,7.0,0.55,1.0,True,False,1.3247557775776215,0.9985288301111273,True,2.0
04,3t2,1,17,36.0,28.0,0.55,1.0,True,True,1.074405984349596,0.2513144282809061,False,1.0
04,3t2,1,18,17.0,10.0,0.55,1.0,True,False,1.3915987546970428,0.5306282510621704,True,2.0
04,3t2,1,19,56.0,20.0,0.55,1.0,True,True,1.3914806250863876,1.029619417181158,False,2.0
04,3t2,1,20,8.0,5.0,0.55,1.0,True,True,1.809246595260504,0.4700036292457356,False,1.0
04,3t2,1,21,78.0,28.0,0.55,1.0,True,True,0.9574359726962598,1.0245043165143877,False,1.0
04,3t2,1,22,20.0,10.0,0.55,1.0,True,False,1.4081130934314388,0.6931471805599453,True,1.0
04,3t2,1,23,35.0,20.0,0.55,1.0,True,True,1.1578112150205015,0.5596157879354227,False,1.0
04,3t2,1,24,15.0,10.0,0.55,1.0,True,False,0.9258974761546596,0.4054651081081644,True,2.0
04,3t2,2,25,5.0,12.0,1.0,0.55,False,True,1.2957359730880853,0.8754687373538999,True,1.0
04,3t2,2,26,14.0,39.0,1.0,0.55,False,True,0.923864260639661,1.0245043165143877,True,1.0
04,3t2,2,27,7.0,9.0,1.0,0.55,False,False,1.5760692914541323,0.2513144282809061,False,2.0
04,3t2,2,28,10.0,24.0,1.0,0.55,False,True,0.9737065184340424,0.8754687373538999,True,2.0
04,3t2,2,29,20.0,48.0,1.0,0.55,False,False,0.6402347645198603,0.8754687373538999,False,1.0
04,3t2,2,30,5.0,16.0,1.0,0.55,False,True,1.2580405733024094,1.1631508098056809,True,1.0
04,3t2,2,31,10.0,28.0,1.0,0.55,False,True,1.174436752291513,1.029619417181158,True,1.0
04,3t2,2,32,28.0,57.0,1.0,0.55,False,False,0.9244329100661304,0.7108467576593461,False,1.0
04,3t2,2,33,10.0,20.0,1.0,0.55,False,True,2.376821102046506,0.6931471805599453,True,3.0
04,3t2,2,34,28.0,57.0,1.0,0.55,False,False,0.8741341054351324,0.7108467576593461,False,1.0
04,3t2,2,35,20.0,30.0,1.0,0.55,False,False,1.3915436074553045,0.4054651081081644,False,1.0
04,3t2,2,36,5.0,12.0,1.0,0.55,False,True,1.6757224665343529,0.8754687373538999,True,2.0
04,3t2,2,37,49.0,28.0,0.55,1.0,True,True,1.3416269159525314,0.5596157879354227,False,2.0
04,3t2,2,38,16.0,5.0,0.55,1.0,True,False,0.6734764971797631,1.1631508098056809,True,1.0
04,3t2,2,39,7.0,7.0,0.55,1.0,True,True,3.3119790958803605,0.0,False,3.0
04,3t2,2,40,24.0,14.0,0.55,1.0,True,True,3.262112730002201,0.5389965007326869,False,3.0
04,3t2,2,41,15.0,10.0,0.55,1.0,True,False,1.408406910702979,0.4054651081081644,True,2.0
04,3t2,2,42,12.0,5.0,0.55,1.0,True,False,1.1078426911371937,0.8754687373538999,True,1.0
04,3t2,2,43,35.0,20.0,0.55,1.0,True,True,1.9762670982818236,0.5596157879354227,False,2.0
04,3t2,2,44,25.0,20.0,0.55,1.0,True,True,2.109756872988328,0.2231435513142097,False,2.0
04,3t2,2,45,10.0,7.0,0.55,1.0,True,False,2.994969245618904,0.3566749439387324,True,2.0
04,3t2,2,46,22.0,7.0,0.55,1.0,True,False,1.3582283451401054,1.1451323043030026,True,2.0
04,3t2,2,47,14.0,7.0,0.55,1.0,True,False,1.124395602806146,0.6931471805599453,True,3.0
04,3t2,2,48,33.0,14.0,0.55,1.0,True,True,1.9429452062431665,0.8574502318512216,False,3.0
04,3t2,3,49,14.0,28.0,1.0,0.55,False,True,1.429168491096334,0.6931471805599453,True,2.0
04,3t2,3,50,20.0,35.0,1.0,0.55,False,False,1.4591716040522442,0.5596157879354227,False,2.0
04,3t2,3,51,5.0,6.0,1.0,0.55,False,False,1.542152231097134,0.1823215567939546,False,2.0
04,3t2,3,52,10.0,17.0,1.0,0.55,False,True,1.4082019919906088,0.5306282510621704,True,1.0
04,3t2,3,53,20.0,25.0,1.0,0.55,False,False,1.4416043447581617,0.2231435513142097,False,1.0
04,3t2,3,54,20.0,56.0,1.0,0.55,False,False,1.0916776182666723,1.029619417181158,False,1.0
04,3t2,3,55,5.0,5.0,1.0,0.55,False,False,1.6086748720545216,0.0,False,1.0
04,3t2,3,56,14.0,33.0,1.0,0.55,False,True,1.9761411335439192,0.8574502318512216,True,1.0
04,3t2,3,57,14.0,28.0,1.0,0.55,False,False,1.1244025338801291,0.6931471805599453,False,2.0
04,3t2,3,58,20.0,35.0,1.0,0.55,False,False,1.2916240380500312,0.5596157879354227,False,2.0
04,3t2,3,59,14.0,21.0,1.0,0.55,False,True,2.594172051559383,0.4054651081081644,True,3.0
04,3t2,3,60,7.0,12.0,1.0,0.55,False,True,1.942596844432046,0.5389965007326869,True,2.0
04,3t2,3,61,39.0,14.0,0.55,1.0,True,False,2.0264242679204756,1.0245043165143877,True,2.0
04,3t2,3,62,22.0,20.0,0.55,1.0,True,True,1.7922928866991583,0.0953101798043249,False,1.0
04,3t2,3,63,19.0,7.0,0.55,1.0,True,False,1.0572322895241086,0.9985288301111273,True,1.0
04,3t2,3,64,32.0,10.0,0.55,1.0,True,False,2.3269065200010743,1.1631508098056809,True,2.0
04,3t2,3,65,9.0,7.0,0.55,1.0,True,False,0.8598904468399269,0.2513144282809061,True,3.0
04,3t2,3,66,14.0,5.0,0.55,1.0,True,False,0.7404972714166433,1.029619417181158,True,1.0
04,3t2,3,67,16.0,5.0,0.55,1.0,True,False,0.9575441577217134,1.1631508098056809,True,1.0
04,3t2,3,68,39.0,14.0,0.55,1.0,True,True,1.3921541446771355,1.0245043165143877,False,2.0
04,3t2,3,69,48.0,20.0,0.55,1.0,True,True,1.0578630172659018,0.8754687373538999,False,1.0
04,3t2,3,70,18.0,14.0,0.55,1.0,True,True,1.5253097210725173,0.2513144282809061,False,2.0
04,3t2,3,71,30.0,28.0,0.55,1.0,True,True,1.0410807774487694,0.0689928714869514,False,1.0
04,3t2,3,72,10.0,5.0,0.55,1.0,True,False,0.8406591270641002,0.6931471805599453,True,1.0
04,3t2,4,73,7.0,9.0,1.0,0.55,False,True,2.765182141093643,0.2513144282809061,True,2.0
04,3t2,4,74,28.0,42.0,1.0,0.55,False,False,1.4094209569766465,0.4054651081081644,False,1.0
04,3t2,4,75,7.0,10.0,1.0,0.55,False,False,2.5940949056903264,0.3566749439387324,False,3.0
04,3t2,4,76,7.0,14.0,1.0,0.55,False,True,1.124327497469494,0.6931471805599453,True,1.0
04,3t2,4,77,7.0,14.0,1.0,0.55,False,True,1.7425142139754968,0.6931471805599453,True,2.0
04,3t2,4,78,20.0,22.0,1.0,0.55,False,False,1.1912723312425155,0.0953101798043249,False,1.0
04,3t2,4,79,7.0,16.0,1.0,0.55,False,True,0.7570655519884752,0.8266785731844679,True,1.0
04,3t2,4,80,28.0,30.0,1.0,0.55,False,False,0.9574691213110782,0.0689928714869514,False,1.0
04,3t2,4,81,28.0,78.0,1.0,0.55,False,False,1.809235143920887,1.0245043165143877,False,1.0
04,3t2,4,82,7.0,19.0,1.0,0.55,False,True,1.4585595600756278,0.9985288301111273,True,1.0
04,3t2,4,83,20.0,48.0,1.0,0.55,False,False,0.9411741661397172,0.8754687373538999,False,2.0
04,3t2,4,84,5.0,14.0,1.0,0.55,False,True,1.5086151744117444,1.029619417181158,True,2.0
04,3t2,4,85,67.0,28.0,0.55,1.0,True,True,1.091086066159761,0.8724881092157621,False,1.0
04,3t2,4,86,49.0,28.0,0.55,1.0,True,True,1.2581074732343325,0.5596157879354227,False,2.0
04,3t2,4,87,36.0,28.0,0.55,1.0,True,True,1.024504963101208,0.2513144282809061,False,1.0
04,3t2,4,88,22.0,7.0,0.55,1.0,True,False,0.5233994567843467,1.1451323043030026,True,1.0
04,3t2,4,89,42.0,28.0,0.55,1.0,True,True,0.8406832351483899,0.4054651081081644,False,1.0
04,3t2,4,90,57.0,28.0,0.55,1.0,True,True,0.5734086630590696,0.7108467576593461,False,1.0
04,3t2,4,91,5.0,5.0,0.55,1.0,True,True,1.6091052013489957,0.0,False,4.0
04,3t2,4,92,28.0,10.0,0.55,1.0,True,False,1.0911264472006224,1.029619417181158,True,2.0
04,3t2,4,93,30.0,20.0,0.55,1.0,True,True,1.1747998803029986,0.4054651081081644,False,2.0
04,3t2,4,94,30.0,20.0,0.55,1.0,True,True,0.9911565521697412,0.4054651081081644,False,2.0
04,3t2,4,95,11.0,10.0,0.55,1.0,True,False,0.9743438758986828,0.0953101798043249,True,3.0
04,3t2,4,96,6.0,5.0,0.55,1.0,True,True,0.9909091429608452,0.1823215567939546,False,1.0
04,3t2,5,97,14.0,5.0,0.55,1.0,True,False,0.6774926025855272,1.029619417181158,True,2.0
04,3t2,5,98,15.0,14.0,0.55,1.0,True,True,1.058585054373914,0.0689928714869514,False,1.0
04,3t2,5,99,24.0,10.0,0.55,1.0,True,True,1.458636705943725,0.8754687373538999,False,3.0
04,3t2,5,100,45.0,14.0,0.55,1.0,True,False,2.1601020856805917,1.1676051601550612,True,2.0
04,3t2,5,101,21.0,14.0,0.55,1.0,True,True,1.9759811161375185,0.4054651081081644,False,2.0
04,3t2,5,102,56.0,20.0,0.55,1.0,True,True,1.5421239040997392,1.029619417181158,False,2.0
04,3t2,5,103,12.0,7.0,0.55,1.0,True,True,2.444063067952797,0.5389965007326869,False,3.0
04,3t2,5,104,24.0,14.0,0.55,1.0,True,True,1.2244477666718012,0.5389965007326869,False,3.0
04,3t2,5,105,28.0,14.0,0.55,1.0,True,False,2.0429160053272426,0.6931471805599453,True,2.0
04,3t2,5,106,8.0,5.0,0.55,1.0,True,True,1.49184559133937,0.4700036292457356,False,1.0
04,3t2,5,107,10.0,5.0,0.55,1.0,True,False,3.0282839052324846,0.6931471805599453,True,3.0
04,3t2,5,108,91.0,28.0,0.55,1.0,True,True,0.8740536447048726,1.1786549963416462,False,1.0
04,3t2,5,109,7.0,7.0,1.0,0.55,False,False,1.4081893352467605,0.0,False,1.0
04,3t2,5,110,7.0,7.0,1.0,0.55,False,False,2.04319324829072,0.0,False,2.0
04,3t2,5,111,10.0,24.0,1.0,0.55,False,True,1.5756266067664626,0.8754687373538999,True,1.0
04,3t2,5,112,10.0,11.0,1.0,0.55,False,False,0.8241068180968512,0.0953101798043249,False,1.0
04,3t2,5,113,14.0,45.0,1.0,0.55,False,True,0.9910830225144308,1.1676051601550612,True,1.0
04,3t2,5,114,28.0,49.0,1.0,0.55,False,False,0.4064098573126102,0.5596157879354227,False,1.0
04,3t2,5,115,20.0,41.0,1.0,0.55,False,False,1.675816488061173,0.7178397931503168,False,1.0
04,3t2,5,116,5.0,10.0,1.0,0.55,False,True,2.577686642523986,0.6931471805599453,True,2.0
04,3t2,5,117,28.0,36.0,1.0,0.55,False,False,0.4231351417811311,0.2513144282809061,False,1.0
04,3t2,5,118,5.0,7.0,1.0,0.55,False,False,1.207883102312735,0.3364722366212129,False,1.0
04,3t2,5,119,28.0,42.0,1.0,0.55,False,False,0.6734460607239612,0.4054651081081644,False,1.0
04,3t2,5,120,10.0,28.0,1.0,0.55,False,True,1.8260351634480685,1.029619417181158,True,2.0
04,3t2,6,121,5.0,8.0,1.0,0.55,False,True,1.8608620026161589,0.4700036292457356,True,2.0
04,3t2,6,122,10.0,15.0,1.0,0.55,False,True,1.0574052650244994,0.4054651081081644,True,2.0
04,3t2,6,123,28.0,67.0,1.0,0.55,False,False,1.0421141101896865,0.8724881092157621,False,1.0
04,3t2,6,124,14.0,33.0,1.0,0.55,False,True,2.1099229174160428,0.8574502318512216,True,3.0
04,3t2,6,125,10.0,17.0,1.0,0.55,False,False,2.477161658865043,0.5306282510621704,False,3.0
04,3t2,6,126,5.0,6.0,1.0,0.55,False,False,1.194529634711202,0.1823215567939546,False,1.0
04,3t2,6,127,28.0,49.0,1.0,0.55,False,False,0.8575932478079125,0.5596157879354227,False,1.0
04,3t2,6,128,20.0,56.0,1.0,0.55,False,True,1.024643283231839,1.029619417181158,True,3.0
04,3t2,6,129,7.0,16.0,1.0,0.55,False,True,1.8425814453939893,0.8266785731844679,True,2.0
04,3t2,6,130,7.0,19.0,1.0,0.55,False,True,1.0075153937650612,0.9985288301111273,True,2.0
04,3t2,6,131,10.0,32.0,1.0,0.55,False,True,1.4580981916224118,1.1631508098056809,True,2.0
04,3t2,6,132,20.0,41.0,1.0,0.55,False,False,0.6903837976805391,0.7178397931503168,False,2.0
04,3t2,6,133,18.0,14.0,0.55,1.0,True,True,2.0764976619675792,0.2513144282809061,False,2.0
04,3t2,6,134,12.0,7.0,0.55,1.0,True,True,1.090937500093844,0.5389965007326869,False,2.0
04,3t2,6,135,28.0,10.0,0.55,1.0,True,False,1.8093122897880392,1.029619417181158,True,1.0
04,3t2,6,136,91.0,28.0,0.55,1.0,True,True,1.191378406811026,1.1786549963416462,False,1.0
04,3t2,6,137,12.0,10.0,0.55,1.0,True,True,1.5587229224784096,0.1823215567939546,False,2.0
04,3t2,6,138,22.0,20.0,0.55,1.0,True,True,0.973980145184214,0.0953101798043249,False,2.0
04,3t2,6,139,45.0,14.0,0.55,1.0,True,False,1.3417019523631095,1.1676051601550612,True,2.0
04,3t2,6,140,17.0,10.0,0.55,1.0,True,True,2.8280069033498876,0.5306282510621704,False,3.0
04,3t2,6,141,65.0,20.0,0.55,1.0,True,True,1.959329059974152,1.1786549963416462,False,2.0
04,3t2,6,142,30.0,28.0,0.55,1.0,True,True,0.6733309446244107,0.0689928714869514,False,2.0
04,3t2,6,143,14.0,7.0,0.55,1.0,True,False,2.310279777325377,0.6931471805599453,True,2.0
04,3t2,6,144,33.0,14.0,0.55,1.0,True,False,1.6257352588863796,0.8574502318512216,True,2.0
04,3t2,7,145,12.0,10.0,0.55,1.0,True,True,2.0972571329039127,0.1823215567939546,False,1.0
04,3t2,7,146,10.0,7.0,0.55,1.0,True,True,1.4415627583139212,0.3566749439387324,False,1.0
04,3t2,7,147,21.0,14.0,0.55,1.0,True,True,2.410045959048148,0.4054651081081644,False,2.0
04,3t2,7,148,42.0,28.0,0.55,1.0,True,True,0.8402318112794092,0.4054651081081644,False,1.0
04,3t2,7,149,12.0,5.0,0.55,1.0,True,False,1.1416506624154863,0.8754687373538999,True,1.0
04,3t2,7,150,7.0,5.0,0.55,1.0,True,True,0.5897982424612565,0.3364722366212129,False,1.0
04,3t2,7,151,5.0,5.0,0.55,1.0,True,True,0.4730066306274239,0.0,False,1.0
04,3t2,7,152,28.0,14.0,0.55,1.0,True,True,1.8091112886404377,0.6931471805599453,False,2.0
04,3t2,7,153,20.0,10.0,0.55,1.0,True,False,0.6566276587827815,0.6931471805599453,True,1.0
04,3t2,7,154,6.0,5.0,0.55,1.0,True,True,0.6235712570160388,0.1823215567939546,False,1.0
04,3t2,7,155,7.0,5.0,0.55,1.0,True,True,0.3394041506289795,0.3364722366212129,False,1.0
04,3t2,7,156,78.0,28.0,0.55,1.0,True,True,1.4752318067594388,1.0245043165143877,False,1.0
04,3t2,7,157,5.0,10.0,1.0,0.55,False,True,1.875865065850121,0.6931471805599453,True,2.0
04,3t2,7,158,10.0,20.0,1.0,0.55,False,True,0.890577325322738,0.6931471805599453,True,2.0
04,3t2,7,159,10.0,12.0,1.0,0.55,False,False,2.310256271944155,0.1823215567939546,False,2.0
04,3t2,7,160,20.0,22.0,1.0,0.55,False,False,0.8738363705996903,0.0953101798043249,False,1.0
04,3t2,7,161,14.0,39.0,1.0,0.55,False,True,1.475042256951383,1.0245043165143877,True,1.0
04,3t2,7,162,5.0,14.0,1.0,0.55,False,True,0.727029591768769,1.029619417181158,True,1.0
04,3t2,7,163,5.0,7.0,1.0,0.55,False,False,1.5584682808439538,0.3364722366212129,False,1.0
04,3t2,7,164,20.0,30.0,1.0,0.55,False,False,0.706695327160503,0.4054651081081644,False,1.0
04,3t2,7,165,14.0,21.0,1.0,0.55,False,False,1.0076057990791014,0.4054651081081644,False,1.0
04,3t2,7,166,5.0,5.0,1.0,0.55,False,False,1.64197777897607,0.0,False,1.0
04,3t2,7,167,28.0,78.0,1.0,0.55,False,False,0.4062570723317549,1.0245043165143877,False,1.0
04,3t2,7,168,7.0,22.0,1.0,0.55,False,True,0.7066880947359095,1.1451323043030026,True,1.0
04,3t2,8,169,41.0,20.0,0.55,1.0,True,True,1.4456596257996353,0.7178397931503168,False,2.0
04,3t2,8,170,32.0,10.0,0.55,1.0,True,False,1.959926940452533,1.1631508098056809,True,2.0
04,3t2,8,171,65.0,20.0,0.55,1.0,True,True,1.658860067339447,1.1786549963416462,False,2.0
04,3t2,8,172,16.0,7.0,0.55,1.0,True,False,1.8755374972615757,0.8266785731844679,True,2.0
04,3t2,8,173,48.0,20.0,0.55,1.0,True,True,1.090796769154622,0.8754687373538999,False,1.0
04,3t2,8,174,25.0,20.0,0.55,1.0,True,True,1.308122103828282,0.2231435513142097,False,1.0
04,3t2,8,175,11.0,10.0,0.55,1.0,True,True,2.0595511858309834,0.0953101798043249,False,2.0
04,3t2,8,176,16.0,7.0,0.55,1.0,True,True,2.0761089191164643,0.8266785731844679,False,1.0
04,3t2,8,177,15.0,14.0,0.55,1.0,True,True,1.8590424449930651,0.0689928714869514,False,1.0
04,3t2,8,178,67.0,28.0,0.55,1.0,True,True,0.974054578893572,0.8724881092157621,False,1.0
04,3t2,8,179,57.0,28.0,0.55,1.0,True,True,0.9246968935831036,0.7108467576593461,False,1.0
04,3t2,8,180,9.0,7.0,0.55,1.0,True,True,1.1411127507953438,0.2513144282809061,False,1.0
04,3t2,8,181,10.0,12.0,1.0,0.55,False,False,1.307880420287745,0.1823215567939546,False,2.0
04,3t2,8,182,28.0,36.0,1.0,0.55,False,False,0.5062143106188159,0.2513144282809061,False,1.0
04,3t2,8,183,14.0,24.0,1.0,0.55,False,True,1.9593685369618183,0.5389965007326869,True,2.0
04,3t2,8,184,10.0,11.0,1.0,0.55,False,False,1.2576961290551196,0.0953101798043249,False,1.0
04,3t2,8,185,7.0,10.0,1.0,0.55,False,False,1.1577174948452011,0.3566749439387324,False,1.0
04,3t2,8,186,20.0,65.0,1.0,0.55,False,False,0.9915651841902218,1.1786549963416462,False,1.0
04,3t2,8,187,10.0,32.0,1.0,0.55,False,True,1.3248977139210183,1.1631508098056809,True,2.0
04,3t2,8,188,14.0,15.0,1.0,0.55,False,False,1.0909941540912769,0.0689928714869514,False,1.0
04,3t2,8,189,14.0,18.0,1.0,0.55,False,False,2.159866429162321,0.2513144282809061,False,3.0
04,3t2,8,190,28.0,91.0,1.0,0.55,False,False,0.8575365938104369,1.1786549963416462,False,1.0
04,3t2,8,191,28.0,67.0,1.0,0.55,False,False,0.9752316560834516,0.8724881092157621,False,1.0
04,3t2,8,192,5.0,8.0,1.0,0.55,False,False,1.057691849870935,0.4700036292457356,False,1.0
04,7t2,1,1,10.0,21.0,1.0,0.55,False,True,1.0435344000002296,0.7419373447293773,True,1.0
04,7t2,1,2,28.0,70.0,1.0,0.55,False,False,1.1189218999998047,0.9162907318741552,False,1.0
04,7t2,1,3,10.0,25.0,1.0,0.55,False,True,0.9081484999996974,0.9162907318741552,True,2.0
04,7t2,1,4,20.0,42.0,1.0,0.55,False,True,1.7098618999998507,0.7419373447293773,True,2.0
04,7t2,1,5,28.0,42.0,1.0,0.55,False,False,0.8432741999999962,0.4054651081081644,False,1.0
04,7t2,1,6,20.0,59.0,1.0,0.55,False,True,0.7404588000003969,1.0818051703517284,True,1.0
04,7t2,1,7,5.0,7.0,1.0,0.55,False,False,1.2581627999997949,0.3364722366212129,False,1.0
04,7t2,1,8,28.0,36.0,1.0,0.55,False,False,0.6409184999997422,0.2513144282809061,False,1.0
04,7t2,1,9,5.0,9.0,1.0,0.55,False,True,2.9559745999999905,0.5877866649021191,True,3.0
04,7t2,1,10,7.0,10.0,1.0,0.55,False,False,3.3407240000001366,0.3566749439387324,False,2.0
04,7t2,1,11,7.0,9.0,1.0,0.55,False,False,3.274725000000217,0.2513144282809061,False,2.0
04,7t2,1,12,10.0,12.0,1.0,0.55,False,False,1.992042500000025,0.1823215567939546,False,2.0
04,7t2,1,13,10.0,10.0,0.55,1.0,True,True,1.1258922000002372,0.0,False,1.0
04,7t2,1,14,50.0,20.0,0.55,1.0,True,True,1.2746006000002126,0.9162907318741552,False,1.0
04,7t2,1,15,9.0,5.0,0.55,1.0,True,True,1.3248499999999694,0.5877866649021191,False,1.0
04,7t2,1,16,42.0,28.0,0.55,1.0,True,True,1.3596904000000904,0.4054651081081644,False,1.0
04,7t2,1,17,42.0,20.0,0.55,1.0,True,False,2.3260026999996626,0.7419373447293773,True,3.0
04,7t2,1,18,9.0,7.0,0.55,1.0,True,True,2.0088551999997435,0.2513144282809061,False,1.0
04,7t2,1,19,10.0,5.0,0.55,1.0,True,True,2.025217599999906,0.6931471805599453,False,2.0
04,7t2,1,20,29.0,10.0,0.55,1.0,True,True,2.0404262000001836,1.0647107369924282,False,2.0
04,7t2,1,21,35.0,14.0,0.55,1.0,True,False,1.658318600000257,0.9162907318741552,True,2.0
04,7t2,1,22,10.0,7.0,0.55,1.0,True,False,2.0242779999998675,0.3566749439387324,True,2.0
04,7t2,1,23,12.0,10.0,0.55,1.0,True,True,2.8915680999999154,0.1823215567939546,False,2.0
04,7t2,1,24,18.0,14.0,0.55,1.0,True,True,1.0586983999996846,0.2513144282809061,False,2.0
04,7t2,2,25,14.0,35.0,1.0,0.55,False,True,1.2614871000000782,0.9162907318741552,True,2.0
04,7t2,2,26,7.0,9.0,1.0,0.55,False,False,1.2572728000000095,0.2513144282809061,False,1.0
04,7t2,2,27,28.0,83.0,1.0,0.55,False,False,1.1494719000002078,1.086636097621394,False,1.0
04,7t2,2,28,20.0,42.0,1.0,0.55,False,True,0.991943599999999,0.7419373447293773,True,3.0
04,7t2,2,29,10.0,15.0,1.0,0.55,False,True,1.975436300000197,0.4054651081081644,True,2.0
04,7t2,2,30,10.0,35.0,1.0,0.55,False,True,1.1075671999997212,1.252762968495368,True,2.0
04,7t2,2,31,5.0,5.0,1.0,0.55,False,False,2.4713704000000547,0.0,False,1.0
04,7t2,2,32,14.0,21.0,1.0,0.55,False,False,,0.4054651081081644,True,
04,7t2,2,33,20.0,70.0,1.0,0.55,False,True,3.037171700000272,1.252762968495368,True,1.0
04,7t2,2,34,10.0,10.0,1.0,0.55,False,False,2.958950499999901,0.0,False,2.0
04,7t2,2,35,28.0,98.0,1.0,0.55,False,True,2.0263835999999458,1.252762968495368,True,3.0
04,7t2,2,36,5.0,17.0,1.0,0.55,False,True,2.09167840000012,1.2237754316221157,True,1.0
04,7t2,2,37,42.0,20.0,0.55,1.0,True,True,2.1080975999997804,0.7419373447293773,False,1.0
04,7t2,2,38,49.0,14.0,0.55,1.0,True,False,1.007621899999748,1.252762968495368,True,2.0
04,7t2,2,39,29.0,14.0,0.55,1.0,True,False,1.5748819000000367,0.7282385003712155,True,2.0
04,7t2,2,40,6.0,5.0,0.55,1.0,True,True,2.622797100000298,0.1823215567939546,False,2.0
04,7t2,2,41,7.0,5.0,0.55,1.0,True,True,1.6748450999998852,0.3364722366212129,False,1.0
04,7t2,2,42,5.0,5.0,0.55,1.0,True,True,0.5743613999997592,0.0,False,1.0
04,7t2,2,43,12.0,7.0,0.55,1.0,True,True,1.24175809999997,0.5389965007326869,False,1.0
04,7t2,2,44,9.0,5.0,0.55,1.0,True,True,0.7576868999999533,0.5877866649021191,False,1.0
04,7t2,2,45,5.0,5.0,0.55,1.0,True,True,2.5573598999999376,0.0,False,1.0
04,7t2,2,46,35.0,14.0,0.55,1.0,True,True,1.4413604000001214,0.9162907318741552,False,3.0
04,7t2,2,47,12.0,7.0,0.55,1.0,True,False,1.0566374999997947,0.5389965007326869,True,2.0
04,7t2,2,48,41.0,14.0,0.55,1.0,True,False,1.5915843000003065,1.074514737089049,True,2.0
04,7t2,3,49,25.0,10.0,0.55,1.0,True,False,1.0938977999999224,0.9162907318741552,True,1.0
04,7t2,3,50,21.0,14.0,0.55,1.0,True,True,1.075986499999999,0.4054651081081644,False,2.0
04,7t2,3,51,25.0,10.0,0.55,1.0,True,False,1.624742899999994,0.9162907318741552,True,2.0
04,7t2,3,52,7.0,7.0,0.55,1.0,True,True,0.6246284999997584,0.0,False,1.0
04,7t2,3,53,12.0,5.0,0.55,1.0,True,True,2.741429700000026,0.8754687373538999,False,3.0
04,7t2,3,54,36.0,28.0,0.55,1.0,True,True,1.5584369000003022,0.2513144282809061,False,1.0
04,7t2,3,55,17.0,7.0,0.55,1.0,True,False,0.7404237999999168,0.8873031950009027,True,1.0
04,7t2,3,56,17.0,5.0,0.55,1.0,True,False,1.0083712999998935,1.2237754316221157,True,2.0
04,7t2,3,57,98.0,28.0,0.55,1.0,True,False,1.2745137000001705,1.252762968495368,True,2.0
04,7t2,3,58,15.0,14.0,0.55,1.0,True,True,2.4559878000000026,0.0689928714869514,False,2.0
04,7t2,3,59,7.0,7.0,0.55,1.0,True,False,2.091482200000428,0.0,True,2.0
04,7t2,3,60,14.0,7.0,0.55,1.0,True,False,0.9973234999997374,0.6931471805599453,True,2.0
04,7t2,3,61,10.0,29.0,1.0,0.55,False,True,0.908854500000416,1.0647107369924282,True,2.0
04,7t2,3,62,10.0,18.0,1.0,0.55,False,True,1.9086300000008407,0.5877866649021191,True,2.0
04,7t2,3,63,28.0,70.0,1.0,0.55,False,False,0.6863537999998073,0.9162907318741552,False,1.0
04,7t2,3,64,5.0,12.0,1.0,0.55,False,True,1.274786599999942,0.8754687373538999,True,2.0
04,7t2,3,65,7.0,17.0,1.0,0.55,False,True,0.8586130999992747,0.8873031950009027,True,1.0
04,7t2,3,66,20.0,36.0,1.0,0.55,False,True,1.7428311000003305,0.5877866649021191,True,2.0
04,7t2,3,67,20.0,25.0,1.0,0.55,False,False,0.8258779999996477,0.2231435513142097,False,1.0
04,7t2,3,68,14.0,41.0,1.0,0.55,False,True,0.7922128000000157,1.074514737089049,True,1.0
04,7t2,3,69,28.0,59.0,1.0,0.55,False,False,2.0714772000001176,0.7453329337305156,False,2.0
04,7t2,3,70,28.0,83.0,1.0,0.55,False,True,1.1328143999999156,1.086636097621394,True,2.0
04,7t2,3,71,10.0,12.0,1.0,0.55,False,True,2.5580376000007163,0.1823215567939546,True,2.0
04,7t2,3,72,28.0,50.0,1.0,0.55,False,False,0.5221292999995057,0.5798184952529422,False,1.0
04,7t2,4,73,7.0,5.0,0.55,1.0,True,True,0.5343152999994345,0.3364722366212129,False,1.0
04,7t2,4,74,14.0,5.0,0.55,1.0,True,False,2.5740586000001713,1.029619417181158,True,2.0
04,7t2,4,75,70.0,20.0,0.55,1.0,True,True,0.5899834000001718,1.252762968495368,False,1.0
04,7t2,4,76,17.0,7.0,0.55,1.0,True,False,0.8412442999997438,0.8873031950009027,True,1.0
04,7t2,4,77,42.0,28.0,0.55,1.0,True,True,0.7587593999996756,0.4054651081081644,False,1.0
04,7t2,4,78,36.0,20.0,0.55,1.0,True,True,1.6739500000003176,0.5877866649021191,False,1.0
04,7t2,4,79,70.0,28.0,0.55,1.0,True,True,1.4072175000001153,0.9162907318741552,False,1.0
04,7t2,4,80,50.0,20.0,0.55,1.0,True,False,1.4253311000002211,0.9162907318741552,True,2.0
04,7t2,4,81,29.0,10.0,0.55,1.0,True,False,1.6078514999999245,1.0647107369924282,True,2.0
04,7t2,4,82,36.0,20.0,0.55,1.0,True,True,0.7916649999997389,0.5877866649021191,False,1.0
04,7t2,4,83,9.0,7.0,0.55,1.0,True,False,1.4911984999999106,0.2513144282809061,True,2.0
04,7t2,4,84,20.0,7.0,0.55,1.0,True,False,0.558167199999815,1.0498221244986776,True,2.0
04,7t2,4,85,20.0,50.0,1.0,0.55,False,True,2.2070223000000624,0.9162907318741552,True,1.0
04,7t2,4,86,14.0,29.0,1.0,0.55,False,True,0.9921935000002406,0.7282385003712155,True,1.0
04,7t2,4,87,14.0,21.0,1.0,0.55,False,True,1.308440699999693,0.4054651081081644,True,3.0
04,7t2,4,88,5.0,17.0,1.0,0.55,False,True,0.7076757999993788,1.2237754316221157,True,1.0
04,7t2,4,89,14.0,29.0,1.0,0.55,False,True,1.2413421000001108,0.7282385003712155,True,2.0
04,7t2,4,90,28.0,98.0,1.0,0.55,False,False,1.810045700000046,1.252762968495368,False,2.0
04,7t2,4,91,5.0,6.0,1.0,0.55,False,False,2.1915880000005927,0.1823215567939546,False,1.0
04,7t2,4,92,7.0,24.0,1.0,0.55,False,True,0.7740039999998771,1.2321436812926323,True,1.0
04,7t2,4,93,20.0,70.0,1.0,0.55,False,False,1.7030167999992043,1.252762968495368,False,2.0
04,7t2,4,94,14.0,35.0,1.0,0.55,False,True,0.6924866999997903,0.9162907318741552,True,2.0
04,7t2,4,95,7.0,20.0,1.0,0.55,False,True,2.2574666999998954,1.0498221244986776,True,1.0
04,7t2,4,96,14.0,25.0,1.0,0.55,False,True,1.3920796000002156,0.5798184952529422,True,2.0
04,7t2,5,97,83.0,28.0,0.55,1.0,True,True,1.5909865000003265,1.086636097621394,False,2.0
04,7t2,5,98,24.0,7.0,0.55,1.0,True,False,1.3741054000001895,1.2321436812926323,True,2.0
04,7t2,5,99,59.0,28.0,0.55,1.0,True,True,0.8915277000005588,0.7453329337305156,False,2.0
04,7t2,5,100,10.0,5.0,0.55,1.0,True,True,1.375440099999672,0.6931471805599453,False,1.0
04,7t2,5,101,30.0,28.0,0.55,1.0,True,True,0.8240564999996423,0.0689928714869514,False,1.0
04,7t2,5,102,18.0,10.0,0.55,1.0,True,False,2.7243790000002406,0.5877866649021191,True,2.0
04,7t2,5,103,41.0,14.0,0.55,1.0,True,True,3.474767700000484,1.074514737089049,False,3.0
04,7t2,5,104,14.0,5.0,0.55,1.0,True,False,1.6258979000004103,1.029619417181158,True,2.0
04,7t2,5,105,49.0,14.0,0.55,1.0,True,False,0.7585219000002326,1.252762968495368,True,1.0
04,7t2,5,106,12.0,5.0,0.55,1.0,True,False,,0.8754687373538999,True,
04,7t2,5,107,25.0,14.0,0.55,1.0,True,False,2.924360300000444,0.5798184952529422,True,2.0
04,7t2,5,108,21.0,14.0,0.55,1.0,True,False,2.2249218000006294,0.4054651081081644,True,2.0
04,7t2,5,109,14.0,25.0,1.0,0.55,False,True,1.341973300000035,0.5798184952529422,True,2.0
04,7t2,5,110,20.0,30.0,1.0,0.55,False,False,0.8592216000005806,0.4054651081081644,False,2.0
04,7t2,5,111,28.0,50.0,1.0,0.55,False,False,1.5236760999996193,0.5798184952529422,False,1.0
04,7t2,5,112,28.0,36.0,1.0,0.55,False,True,1.3741681999999855,0.2513144282809061,True,2.0
04,7t2,5,113,20.0,50.0,1.0,0.55,False,True,0.6727231000003826,0.9162907318741552,True,1.0
04,7t2,5,114,5.0,9.0,1.0,0.55,False,True,1.6583788999996614,0.5877866649021191,True,2.0
04,7t2,5,115,5.0,7.0,1.0,0.55,False,True,1.0742370999997206,0.3364722366212129,True,1.0
04,7t2,5,116,7.0,17.0,1.0,0.55,False,True,0.9428341000002548,0.8873031950009027,True,2.0
04,7t2,5,117,7.0,20.0,1.0,0.55,False,True,1.008501499999511,1.0498221244986776,True,2.0
04,7t2,5,118,20.0,59.0,1.0,0.55,False,True,0.7735881999997218,1.0818051703517284,True,2.0
04,7t2,5,119,14.0,18.0,1.0,0.55,False,True,2.074422599999707,0.2513144282809061,True,2.0
04,7t2,5,120,20.0,21.0,1.0,0.55,False,False,0.7412011999995798,0.048790164169432,False,2.0
04,7t2,6,121,10.0,7.0,0.55,1.0,True,False,1.326245199999903,0.3566749439387324,True,3.0
04,7t2,6,122,25.0,20.0,0.55,1.0,True,True,1.1428814000000784,0.2231435513142097,False,2.0
04,7t2,6,123,21.0,20.0,0.55,1.0,True,True,0.8090073000003031,0.048790164169432,False,2.0
04,7t2,6,124,50.0,28.0,0.55,1.0,True,True,0.5421328000002461,0.5798184952529422,False,1.0
04,7t2,6,125,30.0,20.0,0.55,1.0,True,True,0.757095500000105,0.4054651081081644,False,2.0
04,7t2,6,126,25.0,14.0,0.55,1.0,True,False,0.5084003000001616,0.5798184952529422,True,2.0
04,7t2,6,127,83.0,28.0,0.55,1.0,True,True,2.2749258999993174,1.086636097621394,False,2.0
04,7t2,6,128,59.0,28.0,0.55,1.0,True,True,1.159034999999676,0.7453329337305156,False,2.0
04,7t2,6,129,70.0,28.0,0.55,1.0,True,True,2.5752677000000403,0.9162907318741552,False,1.0
04,7t2,6,130,35.0,10.0,0.55,1.0,True,False,1.0750765000002502,1.252762968495368,True,1.0
04,7t2,6,131,18.0,10.0,0.55,1.0,True,False,1.4097916000000907,0.5877866649021191,True,2.0
04,7t2,6,132,59.0,20.0,0.55,1.0,True,False,0.9074935999997537,1.0818051703517284,True,2.0
04,7t2,6,133,14.0,49.0,1.0,0.55,False,True,0.857631500000025,1.252762968495368,True,2.0
04,7t2,6,134,20.0,21.0,1.0,0.55,False,False,2.441114500000367,0.048790164169432,False,2.0
04,7t2,6,135,10.0,35.0,1.0,0.55,False,True,0.7244430000000648,1.252762968495368,True,2.0
04,7t2,6,136,20.0,30.0,1.0,0.55,False,True,0.8918869999997696,0.4054651081081644,True,2.0
04,7t2,6,137,7.0,24.0,1.0,0.55,False,True,0.7083158999994339,1.2321436812926323,True,1.0
04,7t2,6,138,10.0,10.0,1.0,0.55,False,False,0.8246577999998408,0.0,False,2.0
04,7t2,6,139,14.0,49.0,1.0,0.55,False,True,0.8921159000001353,1.252762968495368,True,1.0
04,7t2,6,140,5.0,14.0,1.0,0.55,False,True,0.7575340000003052,1.029619417181158,True,2.0
04,7t2,6,141,14.0,41.0,1.0,0.55,False,True,1.3912227999999232,1.074514737089049,True,2.0
04,7t2,6,142,5.0,14.0,1.0,0.55,False,True,0.7085126000002333,1.029619417181158,True,2.0
04,7t2,6,143,5.0,10.0,1.0,0.55,False,True,3.12471480000022,0.6931471805599453,True,3.0
04,7t2,6,144,28.0,42.0,1.0,0.55,False,False,0.6749338000000193,0.4054651081081644,False,1.0
04,7t2,7,145,7.0,14.0,1.0,0.55,False,True,0.7614246000002858,0.6931471805599453,True,2.0
04,7t2,7,146,10.0,25.0,1.0,0.55,False,True,0.7898265000003448,0.9162907318741552,True,2.0
04,7t2,7,147,7.0,7.0,1.0,0.55,False,False,0.7576616999995167,0.0,False,2.0
04,7t2,7,148,14.0,15.0,1.0,0.55,False,False,0.9252338000005552,0.0689928714869514,False,1.0
04,7t2,7,149,5.0,10.0,1.0,0.55,False,True,0.7740913999996337,0.6931471805599453,True,2.0
04,7t2,7,150,5.0,12.0,1.0,0.55,False,True,0.5241130999993686,0.8754687373538999,True,1.0
04,7t2,7,151,7.0,14.0,1.0,0.55,False,True,0.7740290000001693,0.6931471805599453,True,2.0
04,7t2,7,152,14.0,18.0,1.0,0.55,False,True,0.7075061000005007,0.2513144282809061,True,2.0
04,7t2,7,153,28.0,30.0,1.0,0.55,False,False,1.2244869000005565,0.0689928714869514,False,1.0
04,7t2,7,154,14.0,15.0,1.0,0.55,False,True,1.3239512999998908,0.0689928714869514,True,2.0
04,7t2,7,155,5.0,5.0,1.0,0.55,False,False,0.925539699999689,0.0,False,1.0
04,7t2,7,156,10.0,18.0,1.0,0.55,False,True,0.4752876000002857,0.5877866649021191,True,2.0
04,7t2,7,157,15.0,10.0,0.55,1.0,True,False,0.6583337000001563,0.4054651081081644,True,2.0
04,7t2,7,158,35.0,10.0,0.55,1.0,True,False,0.6805788000001769,1.252762968495368,True,2.0
04,7t2,7,159,98.0,28.0,0.55,1.0,True,False,0.707756399999198,1.252762968495368,True,2.0
04,7t2,7,160,12.0,10.0,0.55,1.0,True,True,0.8254424999994967,0.1823215567939546,False,2.0
04,7t2,7,161,21.0,10.0,0.55,1.0,True,True,1.6243110999994317,0.7419373447293773,False,2.0
04,7t2,7,162,15.0,14.0,0.55,1.0,True,True,1.0257424999999785,0.0689928714869514,False,2.0
04,7t2,7,163,59.0,20.0,0.55,1.0,True,True,1.5917226999999912,1.0818051703517284,False,2.0
04,7t2,7,164,10.0,10.0,0.55,1.0,True,True,3.091536400000223,0.0,False,2.0
04,7t2,7,165,30.0,20.0,0.55,1.0,True,True,0.6911590999997657,0.4054651081081644,False,1.0
04,7t2,7,166,70.0,20.0,0.55,1.0,True,True,1.8116078000002176,1.252762968495368,False,2.0
04,7t2,7,167,29.0,14.0,0.55,1.0,True,False,1.4088990000000765,0.7282385003712155,True,2.0
04,7t2,7,168,25.0,20.0,0.55,1.0,True,True,0.6587097999999969,0.2231435513142097,False,2.0
04,7t2,8,169,15.0,10.0,0.55,1.0,True,True,0.910600400000476,0.4054651081081644,False,2.0
04,7t2,8,170,14.0,7.0,0.55,1.0,True,True,0.6746064999997543,0.6931471805599453,False,2.0
