subject,format,run,trial_nr,n1,n2,choice,rt,accuracy,correct,isi
1,non-symbolic,1,1,7,10,True,775,1,-1,8.033000000000003
1,non-symbolic,1,2,5,14,False,892,0,-1,8.532000000000002
1,non-symbolic,1,3,7,14,True,611,1,-1,6.532999999999997
1,non-symbolic,1,4,7,10,True,660,1,-1,7.033000000000006
1,non-symbolic,1,5,5,10,True,830,1,-1,9.033
1,non-symbolic,1,6,28,10,False,687,1,1,7.532000000000005
1,non-symbolic,1,7,28,20,True,1274,0,1,6.033000000000005
1,non-symbolic,1,8,7,5,False,576,1,1,6.033000000000006
1,non-symbolic,1,9,20,19,True,890,0,1,9.033000000000001
1,non-symbolic,1,10,10,5,False,472,1,1,8.532000000000005
1,non-symbolic,1,11,20,57,True,790,1,-1,7.033
1,non-symbolic,1,12,14,7,False,415,1,1,6.532999999999991
1,non-symbolic,1,13,28,14,False,550,1,1,8.03300000000001
1,non-symbolic,1,14,14,28,True,1075,1,-1,7.531999999999981
1,non-symbolic,1,15,10,14,True,1100,1,-1,7.032000000000005
1,non-symbolic,1,16,28,27,True,860,0,1,9.032000000000005
1,non-symbolic,1,17,7,10,True,566,1,-1,8.531999999999996
1,non-symbolic,1,18,20,7,False,396,1,1,6.03200000000001
1,non-symbolic,1,19,28,40,True,618,1,-1,8.031999999999977
1,non-symbolic,1,20,5,14,True,487,1,-1,6.532999999999963
1,non-symbolic,1,21,5,3,False,643,1,1,7.533000000000044
1,non-symbolic,1,22,5,3,False,488,1,1,8.532000000000034
1,non-symbolic,1,23,20,10,False,698,1,1,6.532
1,non-symbolic,1,24,14,40,True,629,1,-1,9.032000000000034
1,non-symbolic,1,25,20,14,False,776,1,1,7.0329999999999675
1,non-symbolic,1,26,20,10,False,625,1,1,8.033000000000001
1,non-symbolic,1,27,10,28,True,560,1,-1,7.532999999999982
1,non-symbolic,1,28,14,13,False,1016,1,1,6.031999999999991
1,non-symbolic,1,29,10,14,True,1169,1,-1,7.032999999999968
1,non-symbolic,1,30,7,6,False,782,1,1,7.532000000000011
1,non-symbolic,1,31,14,40,True,809,1,-1,8.531999999999968
1,non-symbolic,1,32,10,7,False,497,1,1,8.033000000000015
1,non-symbolic,1,33,28,56,True,707,1,-1,9.032000000000025
1,non-symbolic,1,34,5,3,False,912,1,1,6.531999999999977
1,non-symbolic,1,35,14,10,False,903,1,1,6.0320000000001235
1,non-symbolic,1,36,10,5,False,518,1,1,8.532999999999934
1,non-symbolic,2,37,28,10,False,552,1,1,6.531999999999997
1,non-symbolic,2,38,7,6,False,1169,1,1,8.033
1,non-symbolic,2,39,14,5,False,559,1,1,9.032
1,non-symbolic,2,40,7,10,True,664,1,-1,8.531999999999996
1,non-symbolic,2,41,28,14,False,982,1,1,7.532000000000007
1,non-symbolic,2,42,14,28,True,468,1,-1,7.032000000000014
1,non-symbolic,2,43,20,28,True,584,1,-1,6.032
1,non-symbolic,2,44,10,5,False,570,1,1,8.531999999999977
1,non-symbolic,2,45,7,6,False,1267,1,1,7.53200000000002
1,non-symbolic,2,46,14,7,False,976,1,1,8.032
1,non-symbolic,2,47,5,10,True,530,1,-1,6.532000000000011
1,non-symbolic,2,48,10,4,False,458,1,1,7.032999999999996
1,non-symbolic,2,49,7,20,True,573,1,-1,6.033000000000011
1,non-symbolic,2,50,20,40,True,1236,1,-1,9.033000000000005
1,non-symbolic,2,51,5,2,False,465,1,1,7.0329999999999915
1,non-symbolic,2,52,28,14,False,1042,1,1,6.033
1,non-symbolic,2,53,14,13,True,1150,0,1,8.531999999999996
1,non-symbolic,2,54,28,20,False,813,1,1,7.532999999999953
1,non-symbolic,2,55,10,20,True,754,1,-1,6.533999999999987
1,non-symbolic,2,56,28,40,True,980,1,-1,8.032
1,non-symbolic,2,57,5,3,False,955,1,1,9.031999999999988
1,non-symbolic,2,58,10,7,False,910,1,1,6.032000000000002
1,non-symbolic,2,59,28,27,True,883,0,1,8.53200000000001
1,non-symbolic,2,60,14,5,False,414,1,1,6.533000000000024
1,non-symbolic,2,61,10,14,True,1054,1,-1,9.03300000000001
1,non-symbolic,2,62,5,4,False,853,1,1,7.531999999999977
1,non-symbolic,2,63,7,10,True,524,1,-1,7.032000000000006
1,non-symbolic,2,64,5,2,False,499,1,1,8.031999999999963
1,non-symbolic,2,65,20,19,False,1144,1,1,6.532999999999991
1,non-symbolic,2,66,20,57,True,632,1,-1,6.031999999999977
1,non-symbolic,2,67,5,14,True,634,1,-1,7.032000000000029
1,non-symbolic,2,68,20,7,False,450,1,1,8.532
1,non-symbolic,2,69,20,57,True,637,1,-1,8.032000000000034
1,non-symbolic,2,70,14,10,False,693,1,1,9.03200000000001
1,non-symbolic,2,71,7,6,False,1121,1,1,7.532999999999987
1,non-symbolic,2,72,10,28,True,551,1,-1,7.532000000000024
1,non-symbolic,3,73,10,5,False,557,1,1,9.032999999999996
1,non-symbolic,3,74,28,27,False,1061,1,1,8.533000000000005
1,non-symbolic,3,75,10,5,False,432,1,1,7.033000000000004
1,non-symbolic,3,76,28,79,True,542,1,-1,6.532
1,non-symbolic,3,77,14,5,False,535,1,1,6.031999999999993
1,non-symbolic,3,78,20,19,False,676,1,1,7.533000000000015
1,non-symbolic,3,79,20,10,False,910,1,1,8.033000000000005
1,non-symbolic,3,80,28,40,True,365,1,-1,7.531999999999991
1,non-symbolic,3,81,5,14,True,632,1,-1,8.53200000000002
1,non-symbolic,3,82,14,28,True,809,1,-1,6.032000000000015
1,non-symbolic,3,83,5,2,False,582,1,1,8.03200000000001
1,non-symbolic,3,84,10,14,True,610,1,-1,9.031999999999991
1,non-symbolic,3,85,5,4,False,660,1,1,6.5319999999999965
1,non-symbolic,3,86,20,14,False,1212,1,1,7.03200000000002
1,non-symbolic,3,87,7,20,True,344,1,-1,6.032999999999987
1,non-symbolic,3,88,20,19,False,1386,1,1,6.5330000000000386
1,non-symbolic,3,89,14,20,True,1222,1,-1,7.032
1,non-symbolic,3,90,5,4,False,576,1,1,9.031999999999977
1,non-symbolic,3,91,7,14,True,802,1,-1,8.532000000000044
1,non-symbolic,3,92,20,7,False,500,1,1,7.532999999999976
1,non-symbolic,3,93,7,10,True,436,1,-1,8.03200000000002
1,non-symbolic,3,94,28,40,True,612,1,-1,6.532999999999986
1,non-symbolic,3,95,10,4,False,644,1,1,9.031999999999991
1,non-symbolic,3,96,28,79,True,531,1,-1,7.033
1,non-symbolic,3,97,7,20,True,590,1,-1,7.532000000000029
1,non-symbolic,3,98,7,5,False,1398,1,1,8.53300000000003
1,non-symbolic,3,99,5,4,False,879,1,1,6.032999999999963
1,non-symbolic,3,100,7,20,True,585,1,-1,8.031999999999954
1,non-symbolic,3,101,14,7,False,782,1,1,6.532000000000024
1,non-symbolic,3,102,20,19,True,814,0,1,8.032
1,non-symbolic,3,103,5,7,True,645,1,-1,8.53200000000001
1,non-symbolic,3,104,10,9,False,1099,1,1,9.03300000000001
1,non-symbolic,3,105,14,10,True,1152,0,1,6.032999999999953
1,non-symbolic,3,106,10,4,False,801,1,1,7.031000000000015
1,non-symbolic,3,107,28,40,True,760,1,-1,7.532000000000024
1,non-symbolic,3,108,14,7,False,686,1,1,6.031999999999967
1,non-symbolic,4,109,7,10,True,509,1,-1,9.031999999999996
1,non-symbolic,4,110,28,20,False,990,1,1,8.033000000000001
1,non-symbolic,4,111,5,3,False,645,1,1,6.0319999999999965
1,non-symbolic,4,112,5,7,True,331,1,-1,7.033000000000001
1,non-symbolic,4,113,7,10,True,668,1,-1,6.53199999999998
1,non-symbolic,4,114,5,10,True,524,1,-1,8.53200000000001
1,non-symbolic,4,115,10,5,False,449,1,1,7.532000000000011
1,non-symbolic,4,116,20,28,True,1103,1,-1,6.03200000000002
1,non-symbolic,4,117,10,5,False,454,1,1,7.0319999999999965
1,non-symbolic,4,118,28,10,False,497,1,1,8.531999999999996
1,non-symbolic,4,119,14,28,True,790,1,-1,7.531999999999981
1,non-symbolic,4,120,14,15,True,1151,1,-1,8.032999999999992
1,non-symbolic,4,121,28,20,False,578,1,1,6.531999999999996
1,non-symbolic,4,122,7,5,False,1732,1,1,9.031999999999977
1,non-symbolic,4,123,14,15,True,1224,1,-1,6.531999999999996
1,non-symbolic,4,124,14,20,True,865,1,-1,8.532
1,non-symbolic,4,125,10,11,True,1493,1,-1,7.533
1,non-symbolic,4,126,20,21,True,1432,1,-1,8.033000000000058
1,non-symbolic,4,127,28,79,True,795,1,-1,7.032
1,non-symbolic,4,128,10,5,False,408,1,1,6.031999999999967
1,non-symbolic,4,129,7,2,False,558,1,1,9.032
1,non-symbolic,4,130,14,15,True,504,1,-1,7.533
1,non-symbolic,4,131,5,2,False,539,1,1,7.031999999999987
1,non-symbolic,4,132,28,56,True,795,1,-1,6.031999999999953
1,non-symbolic,4,133,20,21,False,908,0,-1,9.033000000000033
1,non-symbolic,4,134,5,6,True,1499,1,-1,6.532000000000006
1,non-symbolic,4,135,20,57,True,884,1,-1,8.531999999999991
1,non-symbolic,4,136,20,40,True,1415,1,-1,8.032
1,non-symbolic,4,137,20,21,False,1552,0,-1,8.031999999999977
1,non-symbolic,4,138,5,6,True,1099,1,-1,8.532000000000034
1,non-symbolic,4,139,7,2,False,595,1,1,7.0319999999999965
1,non-symbolic,4,140,10,5,False,557,1,1,9.032999999999976
1,non-symbolic,4,141,28,56,True,488,1,-1,6.533000000000067
1,non-symbolic,4,142,10,20,True,878,1,-1,7.532999999999911
1,non-symbolic,4,143,14,15,False,1425,0,-1,6.031999999999991
1,non-symbolic,4,144,7,5,False,874,1,1,6.031999999999869
1,non-symbolic,5,145,7,2,False,585,1,1,6.032
1,non-symbolic,5,146,10,4,False,329,1,1,9.032000000000005
1,non-symbolic,5,147,7,2,False,440,1,1,8.031999999999988
1,non-symbolic,5,148,10,20,True,521,1,-1,6.533000000000003
1,non-symbolic,5,149,20,40,True,791,1,-1,7.032999999999996
1,non-symbolic,5,150,10,9,False,1192,1,1,7.532000000000006
1,non-symbolic,5,151,7,6,False,1260,1,1,8.531999999999988
1,non-symbolic,5,152,14,28,True,506,1,-1,8.031999999999991
1,non-symbolic,5,153,7,2,False,385,1,1,6.533000000000001
1,non-symbolic,5,154,20,28,True,742,1,-1,8.53300000000001
1,non-symbolic,5,155,14,40,True,436,1,-1,7.032999999999976
1,non-symbolic,5,156,5,14,True,401,1,-1,7.532000000000002
1,non-symbolic,5,157,7,4,False,808,1,1,9.03200000000002
1,non-symbolic,5,158,7,6,False,2139,1,1,6.032999999999996
1,non-symbolic,5,159,14,10,False,964,1,1,6.531999999999991
1,non-symbolic,5,160,5,3,False,340,1,1,7.534000000000006
1,non-symbolic,5,161,28,10,False,331,1,1,7.03200000000001
1,non-symbolic,5,162,20,28,True,1020,1,-1,8.031999999999986
1,non-symbolic,5,163,28,20,False,778,1,1,6.033000000000024
1,non-symbolic,5,164,10,14,False,1290,0,-1,8.532000000000025
1,non-symbolic,5,165,5,4,False,565,1,1,9.032
1,non-symbolic,5,166,5,4,False,1550,1,1,8.531999999999977
1,non-symbolic,5,167,20,57,True,443,1,-1,7.031999999999967
1,non-symbolic,5,168,14,13,False,668,1,1,6.531999999999977
1,non-symbolic,5,169,20,28,True,1691,1,-1,8.03300000000001
1,non-symbolic,5,170,28,56,True,460,1,-1,9.033999999999986
1,non-symbolic,5,171,28,10,False,331,1,1,6.031999999999991
1,non-symbolic,5,172,10,7,False,762,1,1,7.533000000000024
1,non-symbolic,5,173,14,5,False,475,1,1,9.03300000000001
1,non-symbolic,5,174,10,7,False,947,1,1,7.532999999999991
1,non-symbolic,5,175,14,20,True,1190,1,-1,8.53200000000001
1,non-symbolic,5,176,28,14,False,662,1,1,7.032000000000034
1,non-symbolic,5,177,28,27,False,1155,1,1,8.032000000000025
1,non-symbolic,5,178,5,2,False,360,1,1,6.032000000000035
1,non-symbolic,5,179,20,28,True,925,1,-1,6.531999999999953
1,non-symbolic,5,180,5,4,False,903,1,1,6.531999999999931
1,non-symbolic,6,181,28,20,False,815,1,1,6.031999999999996
1,non-symbolic,6,182,14,10,False,932,1,1,8.531999999999996
1,non-symbolic,6,183,5,3,False,508,1,1,6.532000000000005
1,non-symbolic,6,184,10,28,True,598,1,-1,7.532000000000003
1,non-symbolic,6,185,5,14,True,856,1,-1,9.032999999999996
1,non-symbolic,6,186,10,11,True,1265,1,-1,7.03300000000001
1,non-symbolic,6,187,28,40,True,1098,1,-1,8.032000000000005
1,non-symbolic,6,188,7,20,True,624,1,-1,7.533
1,non-symbolic,6,189,10,5,False,671,1,1,8.031999999999991
1,non-symbolic,6,190,7,4,False,481,1,1,9.032000000000014
1,non-symbolic,6,191,20,40,True,649,1,-1,6.531999999999967
1,non-symbolic,6,192,5,2,False,616,1,1,8.532999999999987
1,non-symbolic,6,193,14,7,False,402,1,1,7.031999999999987
1,non-symbolic,6,194,7,2,False,358,1,1,6.032000000000006
1,non-symbolic,6,195,7,14,True,618,1,-1,9.032999999999987
1,non-symbolic,6,196,5,7,True,557,1,-1,8.533000000000039
1,non-symbolic,6,197,7,8,True,1342,1,-1,6.0329999999999675
1,non-symbolic,6,198,20,40,True,648,1,-1,7.032
1,non-symbolic,6,199,14,7,False,999,1,1,6.531999999999977
1,non-symbolic,6,200,14,7,False,362,1,1,7.533
1,non-symbolic,6,201,20,14,False,634,1,1,8.032000000000025
1,non-symbolic,6,202,10,20,True,934,1,-1,7.532000000000014
1,non-symbolic,6,203,14,20,True,1464,1,-1,9.031999999999957
1,non-symbolic,6,204,10,14,True,483,1,-1,8.032000000000005
1,non-symbolic,6,205,28,20,False,1198,1,1,6.53200000000002
1,non-symbolic,6,206,20,21,True,1425,1,-1,7.03200000000001
1,non-symbolic,6,207,5,6,True,989,1,-1,6.0320000000000205
1,non-symbolic,6,208,28,10,False,585,1,1,8.531999999999954
1,non-symbolic,6,209,5,14,True,1002,1,-1,6.532000000000014
1,non-symbolic,6,210,20,14,True,1644,0,1,8.033000000000001
1,non-symbolic,6,211,7,14,True,1347,1,-1,6.032
1,non-symbolic,6,212,28,10,False,783,1,1,9.033000000000033
1,non-symbolic,6,213,10,4,False,424,1,1,7.531999999999991
1,non-symbolic,6,214,14,40,True,749,1,-1,7.033000000000033
1,non-symbolic,6,215,28,40,True,1179,1,-1,8.532
1,non-symbolic,6,216,20,14,True,1653,0,1,6.031999999999953
2,non-symbolic,1,1,14,28,True,1692,1,-1,9.032999999999996
2,non-symbolic,1,2,14,7,False,711,1,1,7.0319999999999885
2,non-symbolic,1,3,14,20,True,957,1,-1,8.033000000000005
2,non-symbolic,1,4,5,3,False,419,1,1,7.531999999999998
2,non-symbolic,1,5,7,10,True,477,1,-1,8.532000000000014
2,non-symbolic,1,6,20,21,False,1415,0,-1,6.53300000000001
2,non-symbolic,1,7,10,14,True,864,1,-1,6.032
2,non-symbolic,1,8,5,3,False,769,1,1,9.03200000000001
2,non-symbolic,1,9,5,6,True,1094,1,-1,6.532999999999996
2,non-symbolic,1,10,10,28,True,104,1,-1,6.0329999999999915
2,non-symbolic,1,11,20,28,True,679,1,-1,7.532000000000005
2,non-symbolic,1,12,7,4,False,651,1,1,8.532999999999992
2,non-symbolic,1,13,7,10,True,723,1,-1,8.032999999999996
2,non-symbolic,1,14,28,14,False,519,1,1,7.031999999999981
2,non-symbolic,1,15,20,10,False,212,1,1,8.032000000000034
2,non-symbolic,1,16,28,10,False,577,1,1,6.031999999999977
2,non-symbolic,1,17,7,2,False,463,1,1,6.532000000000016
2,non-symbolic,1,18,28,14,False,307,1,1,7.533
2,non-symbolic,1,19,14,7,False,179,1,1,9.032
2,non-symbolic,1,20,5,3,False,34,1,1,7.0330000000000155
2,non-symbolic,1,21,10,28,True,718,1,-1,8.531999999999991
2,non-symbolic,1,22,7,4,False,326,1,1,6.032999999999987
2,non-symbolic,1,23,28,79,True,163,1,-1,6.532999999999996
2,non-symbolic,1,24,20,28,True,1078,1,-1,7.034000000000034
2,non-symbolic,1,25,5,6,True,1059,1,-1,8.532000000000025
2,non-symbolic,1,26,14,7,False,403,1,1,8.031999999999957
2,non-symbolic,1,27,7,2,False,598,1,1,7.533000000000021
2,non-symbolic,1,28,20,28,True,718,1,-1,9.032
2,non-symbolic,1,29,14,10,False,376,1,1,6.532999999999953
2,non-symbolic,1,30,28,14,False,220,1,1,7.531999999999977
2,non-symbolic,1,31,10,14,True,637,1,-1,9.032000000000002
2,non-symbolic,1,32,10,20,True,669,1,-1,8.031
2,non-symbolic,1,33,5,6,True,1704,1,-1,7.031999999999945
2,non-symbolic,1,34,28,20,False,325,1,1,6.033000000000033
2,non-symbolic,1,35,20,28,True,529,1,-1,8.533000000000158
2,non-symbolic,1,36,10,28,True,568,1,-1,8.53400000000001
2,non-symbolic,2,37,14,13,False,322,1,1,6.533
2,non-symbolic,2,38,10,5,False,491,1,1,9.032
2,non-symbolic,2,39,20,10,False,278,1,1,7.532999999999994
2,non-symbolic,2,40,28,10,False,254,1,1,6.033
2,non-symbolic,2,41,28,14,False,2255,1,1,8.033000000000001
2,non-symbolic,2,42,5,10,True,385,1,-1,7.0319999999999965
2,non-symbolic,2,43,5,4,False,908,1,1,8.532000000000002
2,non-symbolic,2,44,14,7,False,138,1,1,7.532999999999996
2,non-symbolic,2,45,14,13,False,794,1,1,9.032999999999996
2,non-symbolic,2,46,28,27,True,832,0,1,6.03300000000001
2,non-symbolic,2,47,28,56,True,478,1,-1,7.03300000000001
2,non-symbolic,2,48,14,40,True,225,1,-1,6.533000000000019
2,non-symbolic,2,49,10,28,True,491,1,-1,8.533000000000015
2,non-symbolic,2,50,10,5,False,587,1,1,8.033000000000024
2,non-symbolic,2,51,7,2,False,658,1,1,7.0319999999999965
2,non-symbolic,2,52,7,10,True,882,1,-1,9.032000000000005
2,non-symbolic,2,53,7,10,True,564,1,-1,7.531999999999935
2,non-symbolic,2,54,5,2,False,69,1,1,8.03300000000002
2,non-symbolic,2,55,20,28,False,411,0,-1,8.531999999999991
2,non-symbolic,2,56,28,10,False,254,1,1,6.03200000000001
2,non-symbolic,2,57,10,20,True,311,1,-1,6.534000000000019
2,non-symbolic,2,58,7,5,False,338,1,1,6.031999999999968
2,non-symbolic,2,59,20,10,True,310,0,1,8.032
2,non-symbolic,2,60,5,7,True,815,1,-1,7.033000000000006
2,non-symbolic,2,61,20,14,False,584,1,1,9.032999999999967
2,non-symbolic,2,62,14,7,False,520,1,1,7.532000000000048
2,non-symbolic,2,63,5,10,True,589,1,-1,6.532000000000006
2,non-symbolic,2,64,7,14,True,548,1,-1,8.532999999999982
2,non-symbolic,2,65,5,4,False,619,1,1,7.032000000000001
2,non-symbolic,2,66,20,14,False,323,1,1,7.534000000000029
2,non-symbolic,2,67,7,10,True,445,1,-1,6.032000000000035
2,non-symbolic,2,68,14,20,True,315,1,-1,8.532999999999996
2,non-symbolic,2,69,28,40,True,1034,1,-1,8.032999999999987
2,non-symbolic,2,70,10,14,False,401,0,-1,9.033000000000015
2,non-symbolic,2,71,10,14,True,317,1,-1,6.532000000000038
2,non-symbolic,2,72,20,57,True,311,1,-1,8.031999999999977
2,non-symbolic,3,73,20,40,True,335,1,-1,9.032999999999998
2,non-symbolic,3,74,20,7,False,586,1,1,6.033000000000002
2,non-symbolic,3,75,20,28,True,206,1,-1,7.532
2,non-symbolic,3,76,7,2,False,198,1,1,8.033999999999997
2,non-symbolic,3,77,28,10,False,759,1,1,7.032999999999993
2,non-symbolic,3,78,28,79,True,139,1,-1,8.532999999999976
2,non-symbolic,3,79,14,20,False,657,0,-1,6.533
2,non-symbolic,3,80,5,7,True,680,1,-1,7.032999999999987
2,non-symbolic,3,81,28,10,False,923,1,1,7.53300000000001
2,non-symbolic,3,82,14,10,False,212,1,1,6.033999999999991
2,non-symbolic,3,83,14,40,True,50,1,-1,6.531999999999972
2,non-symbolic,3,84,7,10,True,454,1,-1,9.032000000000002
2,non-symbolic,3,85,10,7,False,1017,1,1,8.033000000000005
2,non-symbolic,3,86,14,20,True,145,1,-1,8.532999999999976
2,non-symbolic,3,87,7,10,False,892,0,-1,6.532999999999992
2,non-symbolic,3,88,28,20,False,621,1,1,7.0350000000000055
2,non-symbolic,3,89,14,20,True,291,1,-1,8.032
2,non-symbolic,3,90,20,28,False,466,0,-1,7.532
2,non-symbolic,3,91,10,5,False,630,1,1,6.031999999999991
2,non-symbolic,3,92,10,5,False,322,1,1,9.03200000000001
2,non-symbolic,3,93,10,4,False,251,1,1,8.53299999999999
2,non-symbolic,3,94,14,15,True,409,1,-1,7.033
2,non-symbolic,3,95,28,79,True,565,1,-1,9.031999999999982
2,non-symbolic,3,96,28,40,True,183,1,-1,8.031999999999996
2,non-symbolic,3,97,5,6,True,648,1,-1,6.533000000000035
2,non-symbolic,3,98,20,10,False,865,1,1,6.03199999999992
2,non-symbolic,3,99,5,2,False,564,1,1,8.533000000000106
2,non-symbolic,3,100,5,6,True,1985,1,-1,7.531999999999992
2,non-symbolic,3,101,7,4,False,466,1,1,8.03300000000002
2,non-symbolic,3,102,10,11,True,290,1,-1,6.032999999999976
2,non-symbolic,3,103,7,2,False,304,1,1,6.532000000000001
2,non-symbolic,3,104,5,4,False,796,1,1,7.53300000000001
2,non-symbolic,3,105,10,5,False,400,1,1,7.032000000000081
2,non-symbolic,3,106,20,40,True,351,1,-1,8.532000000000124
2,non-symbolic,3,107,7,8,True,896,1,-1,9.031999999999911
2,non-symbolic,3,108,5,2,False,30,1,1,7.532000000000124
2,non-symbolic,4,109,20,14,False,395,1,1,8.533
2,non-symbolic,4,110,14,5,False,804,1,1,6.032
2,non-symbolic,4,111,7,4,False,682,1,1,6.532000000000006
2,non-symbolic,4,112,14,20,True,244,1,-1,7.532000000000001
2,non-symbolic,4,113,10,5,False,307,1,1,9.032000000000012
2,non-symbolic,4,114,20,21,False,51,0,-1,7.033000000000033
2,non-symbolic,4,115,10,4,False,305,1,1,8.033000000000001
2,non-symbolic,4,116,14,28,True,970,1,-1,8.032000000000005
2,non-symbolic,4,117,20,10,False,269,1,1,6.031999999999991
2,non-symbolic,4,118,7,5,False,861,1,1,6.532000000000001
2,non-symbolic,4,119,7,5,False,840,1,1,7.533000000000001
2,non-symbolic,4,120,7,14,True,329,1,-1,7.031999999999992
2,non-symbolic,4,121,5,3,False,369,1,1,9.031999999999988
2,non-symbolic,4,122,7,20,True,375,1,-1,8.53200000000001
2,non-symbolic,4,123,14,15,False,901,0,-1,8.533000000000001
2,non-symbolic,4,124,28,29,True,481,1,-1,7.534000000000005
2,non-symbolic,4,125,14,28,True,335,1,-1,8.032000000000005
2,non-symbolic,4,126,28,14,False,1383,1,1,6.031999999999977
2,non-symbolic,4,127,5,7,True,220,1,-1,9.03300000000001
2,non-symbolic,4,128,14,5,False,333,1,1,6.532000000000024
2,non-symbolic,4,129,28,14,False,312,1,1,7.033000000000024
2,non-symbolic,4,130,5,2,False,139,1,1,9.032999999999967
2,non-symbolic,4,131,20,28,True,420,1,-1,7.032
2,non-symbolic,4,132,7,5,False,553,1,1,6.532000000000035
2,non-symbolic,4,133,10,5,False,313,1,1,8.533000000000019
2,non-symbolic,4,134,20,21,False,403,0,-1,8.031999999999977
2,non-symbolic,4,135,28,79,True,136,1,-1,6.033000000000033
2,non-symbolic,4,136,10,5,False,386,1,1,7.533
2,non-symbolic,4,137,5,3,False,478,1,1,6.53300000000002
2,non-symbolic,4,138,5,14,True,447,1,-1,7.532999999999878
2,non-symbolic,4,139,10,4,False,368,1,1,7.033000000000024
2,non-symbolic,4,140,5,14,True,248,1,-1,9.032
2,non-symbolic,4,141,28,20,False,366,1,1,6.03300000000001
2,non-symbolic,4,142,28,79,True,269,1,-1,8.53300000000009
2,non-symbolic,4,143,20,10,False,968,1,1,8.031999999999954
2,non-symbolic,4,144,10,5,False,272,1,1,8.532000000000048
2,non-symbolic,5,145,14,10,False,76,1,1,6.033000000000001
2,non-symbolic,5,146,10,5,False,326,1,1,9.033999999999995
2,non-symbolic,5,147,10,7,False,462,1,1,7.534000000000001
2,non-symbolic,5,148,5,4,False,650,1,1,8.532999999999998
2,non-symbolic,5,149,20,14,False,490,1,1,6.532999999999998
2,non-symbolic,5,150,28,56,True,855,1,-1,8.031999999999977
2,non-symbolic,5,151,10,14,False,720,0,-1,7.031999999999977
2,non-symbolic,5,152,7,14,True,413,1,-1,8.532999999999996
2,non-symbolic,5,153,10,5,False,810,1,1,7.531999999999981
2,non-symbolic,5,154,5,2,False,806,1,1,6.032999999999992
2,non-symbolic,5,155,7,2,False,363,1,1,8.03200000000001
2,non-symbolic,5,156,7,2,False,344,1,1,9.03400000000002
2,non-symbolic,5,157,10,4,False,453,1,1,7.032999999999996
2,non-symbolic,5,158,20,40,True,283,1,-1,6.531999999999996
2,non-symbolic,5,159,28,40,True,642,1,-1,7.032
2,non-symbolic,5,160,14,7,False,396,1,1,8.532999999999976
2,non-symbolic,5,161,20,28,True,411,1,-1,9.032000000000014
2,non-symbolic,5,162,28,79,True,221,1,-1,7.531999999999972
2,non-symbolic,5,163,7,4,False,297,1,1,6.532000000000014
2,non-symbolic,5,164,5,4,False,316,1,1,8.032999999999987
2,non-symbolic,5,165,7,5,False,310,1,1,6.033
2,non-symbolic,5,166,14,15,False,1042,0,-1,9.03400000000001
2,non-symbolic,5,167,28,29,True,349,1,-1,7.53300000000002
2,non-symbolic,5,168,10,4,False,512,1,1,8.032999999999982
2,non-symbolic,5,169,5,10,True,237,1,-1,6.533000000000011
2,non-symbolic,5,170,20,10,True,585,0,1,8.53200000000009
2,non-symbolic,5,171,14,20,True,356,1,-1,6.032
2,non-symbolic,5,172,5,3,False,593,1,1,7.032999999999953
2,non-symbolic,5,173,14,28,True,302,1,-1,6.533
2,non-symbolic,5,174,20,21,False,281,0,-1,8.531999999999977
2,non-symbolic,5,175,5,3,False,464,1,1,6.032000000000002
2,non-symbolic,5,176,28,14,False,289,1,1,8.033000000000033
2,non-symbolic,5,177,14,7,False,380,1,1,7.033000000000043
2,non-symbolic,5,178,28,10,False,286,1,1,7.532999999999958
2,non-symbolic,5,179,20,40,True,477,1,-1,9.03400000000001
2,non-symbolic,5,180,7,14,True,1022,1,-1,8.531999999999911
2,non-symbolic,6,181,28,29,False,632,0,-1,6.031999999999997
2,non-symbolic,6,182,10,28,True,199,1,-1,6.533000000000008
2,non-symbolic,6,183,5,6,True,874,1,-1,9.032000000000005
2,non-symbolic,6,184,7,10,True,502,1,-1,7.032999999999998
2,non-symbolic,6,185,5,3,False,557,1,1,8.532000000000005
2,non-symbolic,6,186,28,20,False,594,1,1,7.532000000000001
2,non-symbolic,6,187,10,4,False,139,1,1,8.032000000000014
2,non-symbolic,6,188,10,5,False,581,1,1,7.034000000000019
2,non-symbolic,6,189,5,10,True,719,1,-1,6.533000000000007
2,non-symbolic,6,190,20,21,False,494,0,-1,8.531999999999982
2,non-symbolic,6,191,7,8,True,888,1,-1,7.531999999999987
2,non-symbolic,6,192,7,4,False,463,1,1,6.032999999999973
2,non-symbolic,6,193,14,7,False,338,1,1,8.03200000000002
2,non-symbolic,6,194,14,20,True,436,1,-1,9.03400000000001
2,non-symbolic,6,195,14,15,False,676,0,-1,9.034000000000015
2,non-symbolic,6,196,20,14,False,352,1,1,8.532000000000014
2,non-symbolic,6,197,7,20,True,466,1,-1,7.032000000000011
2,non-symbolic,6,198,20,14,False,586,1,1,6.033000000000043
2,non-symbolic,6,199,28,56,True,262,1,-1,6.531999999999991
2,non-symbolic,6,200,7,8,True,680,1,-1,7.531999999999977
2,non-symbolic,6,201,5,3,False,354,1,1,8.033000000000035
2,non-symbolic,6,202,28,40,True,756,1,-1,6.032
2,non-symbolic,6,203,10,4,False,638,1,1,7.031999999999953
2,non-symbolic,6,204,28,20,False,778,1,1,6.532
2,non-symbolic,6,205,14,15,False,431,0,-1,9.032999999999987
2,non-symbolic,6,206,7,20,True,332,1,-1,7.531999999999991
2,non-symbolic,6,207,10,4,False,314,1,1,8.032000000000048
2,non-symbolic,6,208,20,40,True,792,1,-1,8.531999999999977
2,non-symbolic,6,209,5,2,False,408,1,1,6.532999999999953
2,non-symbolic,6,210,28,79,True,365,1,-1,6.0339999999999865
2,non-symbolic,6,211,14,7,False,378,1,1,8.53400000000001
2,non-symbolic,6,212,20,40,True,267,1,-1,7.032
2,non-symbolic,6,213,5,2,False,319,1,1,8.03300000000002
2,non-symbolic,6,214,20,40,True,221,1,-1,9.032000000000034
2,non-symbolic,6,215,10,14,False,514,0,-1,7.533000000000025
2,non-symbolic,6,216,14,28,True,278,1,-1,6.032000000000091
3,non-symbolic,1,1,28,56,True,965,1,-1,6.5320000000000125
3,non-symbolic,1,2,5,3,False,1316,1,1,6.032000000000006
3,non-symbolic,1,3,7,10,True,764,1,-1,8.533000000000007
3,non-symbolic,1,4,28,27,True,757,0,1,8.031999999999991
3,non-symbolic,1,5,7,5,False,713,1,1,7.531999999999998
3,non-symbolic,1,6,28,27,False,975,1,1,9.033000000000001
3,non-symbolic,1,7,20,28,True,531,1,-1,7.032000000000014
3,non-symbolic,1,8,10,20,True,1181,1,-1,7.032999999999996
3,non-symbolic,1,9,5,2,False,765,1,1,6.0319999999999965
3,non-symbolic,1,10,14,13,False,709,1,1,6.533000000000005
3,non-symbolic,1,11,20,7,False,442,1,1,9.032000000000005
3,non-symbolic,1,12,10,9,True,1457,0,1,8.531999999999977
3,non-symbolic,1,13,20,57,True,764,1,-1,7.533000000000015
3,non-symbolic,1,14,14,13,False,1147,1,1,8.031999999999977
3,non-symbolic,1,15,7,14,True,753,1,-1,6.532000000000011
3,non-symbolic,1,16,5,14,True,426,1,-1,7.032999999999978
3,non-symbolic,1,17,20,14,False,495,1,1,7.533000000000015
3,non-symbolic,1,18,14,40,True,182,1,-1,8.533000000000024
3,non-symbolic,1,19,10,20,True,560,1,-1,9.031999999999977
3,non-symbolic,1,20,28,40,True,537,1,-1,8.034000000000034
3,non-symbolic,1,21,28,14,False,561,1,1,6.03300000000001
3,non-symbolic,1,22,7,2,False,451,1,1,9.032000000000002
3,non-symbolic,1,23,14,10,False,767,1,1,7.5339999999999865
3,non-symbolic,1,24,10,20,True,580,1,-1,6.032
3,non-symbolic,1,25,20,10,False,579,1,1,8.032
3,non-symbolic,1,26,7,4,False,514,1,1,8.532000000000016
3,non-symbolic,1,27,7,14,True,644,1,-1,7.032999999999968
3,non-symbolic,1,28,14,5,False,448,1,1,6.531999999999991
3,non-symbolic,1,29,5,2,False,561,1,1,6.532000000000038
3,non-symbolic,1,30,10,20,True,461,1,-1,7.532000000000024
3,non-symbolic,1,31,5,2,False,634,1,1,7.033000000000039
3,non-symbolic,1,32,20,19,True,1025,0,1,9.03200000000009
3,non-symbolic,1,33,5,2,False,512,1,1,8.53200000000002
3,non-symbolic,1,34,14,5,False,390,1,1,6.033000000000033
3,non-symbolic,1,35,10,7,False,421,1,1,8.03299999999999
3,non-symbolic,1,36,28,20,True,1744,0,1,9.033000000000115
3,non-symbolic,2,37,14,13,False,286,1,1,6.532999999999997
3,non-symbolic,2,38,20,19,False,140,1,1,7.0329999999999995
3,non-symbolic,2,39,5,4,False,517,1,1,7.533000000000007
3,non-symbolic,2,40,28,40,True,297,1,-1,6.034000000000008
3,non-symbolic,2,41,7,4,False,453,1,1,8.032000000000005
3,non-symbolic,2,42,10,9,True,912,0,1,9.031999999999991
3,non-symbolic,2,43,10,28,True,333,1,-1,8.530999999999986
3,non-symbolic,2,44,5,14,True,341,1,-1,8.032000000000002
3,non-symbolic,2,45,20,28,True,837,1,-1,6.532999999999996
3,non-symbolic,2,46,7,6,False,484,1,1,9.03200000000001
3,non-symbolic,2,47,7,6,True,487,0,1,8.532000000000005
3,non-symbolic,2,48,20,7,False,358,1,1,7.53300000000001
3,non-symbolic,2,49,14,7,False,256,1,1,6.031999999999977
3,non-symbolic,2,50,10,20,False,1235,0,-1,7.032000000000067
3,non-symbolic,2,51,7,6,False,78,1,1,7.532999999999992
3,non-symbolic,2,52,5,4,False,365,1,1,9.030999999999983
3,non-symbolic,2,53,14,28,True,846,1,-1,6.533
3,non-symbolic,2,54,5,4,False,438,1,1,8.032999999999992
3,non-symbolic,2,55,28,56,False,-1,-1,-1,8.532000000000043
3,non-symbolic,2,56,20,19,False,506,1,1,7.031999999999967
3,non-symbolic,2,57,5,7,False,141,0,-1,6.031999999999982
3,non-symbolic,2,58,7,4,False,233,1,1,6.532999999999987
3,non-symbolic,2,59,5,7,True,517,1,-1,7.031999999999954
3,non-symbolic,2,60,14,5,False,302,1,1,8.03299999999999
3,non-symbolic,2,61,28,79,True,383,1,-1,8.531999999999954
3,non-symbolic,2,62,28,79,True,593,1,-1,7.53200000000001
3,non-symbolic,2,63,10,14,True,1321,1,-1,6.03200000000001
3,non-symbolic,2,64,7,5,False,761,1,1,9.031999999999968
3,non-symbolic,2,65,28,20,True,214,0,1,7.532
3,non-symbolic,2,66,28,10,False,184,1,1,9.031999999999991
3,non-symbolic,2,67,14,5,False,97,1,1,8.532999999999976
3,non-symbolic,2,68,20,14,False,156,1,1,7.033000000000033
3,non-symbolic,2,69,10,4,False,247,1,1,6.532000000000011
3,non-symbolic,2,70,10,4,False,317,1,1,6.033000000000044
3,non-symbolic,2,71,14,20,True,335,1,-1,8.031999999999968
3,non-symbolic,2,72,20,28,True,341,1,-1,7.03200000000001
3,non-symbolic,3,73,5,3,False,130,1,1,6.0329999999999995
3,non-symbolic,3,74,7,8,True,451,1,-1,7.033000000000001
3,non-symbolic,3,75,5,6,True,862,1,-1,8.531999999999991
3,non-symbolic,3,76,10,7,False,193,1,1,8.032999999999996
3,non-symbolic,3,77,7,8,False,177,0,-1,7.531999999999992
3,non-symbolic,3,78,10,20,True,251,1,-1,6.531999999999996
3,non-symbolic,3,79,28,40,True,194,1,-1,9.032
3,non-symbolic,3,80,20,28,True,380,1,-1,8.032999999999992
3,non-symbolic,3,81,20,21,True,381,1,-1,8.53299999999999
3,non-symbolic,3,82,5,6,False,193,0,-1,6.533000000000034
3,non-symbolic,3,83,10,20,True,313,1,-1,9.032999999999976
3,non-symbolic,3,84,14,7,False,96,1,1,7.031999999999977
3,non-symbolic,3,85,20,14,False,667,1,1,6.03300000000001
3,non-symbolic,3,86,28,79,True,185,1,-1,7.533999999999991
3,non-symbolic,3,87,10,4,False,509,1,1,9.032000000000062
3,non-symbolic,3,88,14,20,True,199,1,-1,6.531999999999996
3,non-symbolic,3,89,7,14,True,817,1,-1,6.031999999999991
3,non-symbolic,3,90,10,4,False,377,1,1,7.033
3,non-symbolic,3,91,14,10,True,462,0,1,8.033000000000033
3,non-symbolic,3,92,14,10,False,693,1,1,8.532999999999953
3,non-symbolic,3,93,5,10,True,60,1,-1,7.531999999999958
3,non-symbolic,3,94,7,14,False,322,0,-1,7.532999999999997
3,non-symbolic,3,95,28,14,False,204,1,1,9.032
3,non-symbolic,3,96,20,10,False,269,1,1,7.032999999999949
3,non-symbolic,3,97,20,14,False,403,1,1,8.03200000000001
3,non-symbolic,3,98,7,14,True,266,1,-1,6.032000000000011
3,non-symbolic,3,99,14,5,False,179,1,1,6.53200000000002
3,non-symbolic,3,100,5,10,True,225,1,-1,8.53200000000002
3,non-symbolic,3,101,28,20,False,328,1,1,6.032000000000014
3,non-symbolic,3,102,20,10,False,228,1,1,8.031999999999977
3,non-symbolic,3,103,10,20,True,108,1,-1,6.533000000000033
3,non-symbolic,3,104,5,2,False,1300,1,1,7.0340000000000344
3,non-symbolic,3,105,7,8,False,562,0,-1,9.032999999999982
3,non-symbolic,3,106,14,7,False,208,1,1,7.531999999999977
3,non-symbolic,3,107,28,10,False,572,1,1,8.534000000000077
3,non-symbolic,3,108,28,29,True,192,1,-1,9.03400000000002
3,non-symbolic,4,109,5,6,True,771,1,-1,7.532000000000004
3,non-symbolic,4,110,14,40,True,405,1,-1,6.03200000000001
3,non-symbolic,4,111,28,10,False,205,1,1,8.032999999999996
3,non-symbolic,4,112,10,5,False,358,1,1,7.032000000000001
3,non-symbolic,4,113,5,2,False,720,1,1,8.531999999999991
3,non-symbolic,4,114,14,10,False,295,1,1,9.032000000000005
3,non-symbolic,4,115,7,10,True,736,1,-1,6.533000000000001
3,non-symbolic,4,116,14,28,True,408,1,-1,6.533000000000005
3,non-symbolic,4,117,20,28,False,746,0,-1,9.031999999999996
3,non-symbolic,4,118,5,6,False,316,0,-1,8.032
3,non-symbolic,4,119,10,4,False,179,1,1,7.53300000000001
3,non-symbolic,4,120,28,56,True,176,1,-1,6.033
3,non-symbolic,4,121,10,20,False,512,0,-1,8.53299999999999
3,non-symbolic,4,122,10,28,True,95,1,-1,7.03200000000001
3,non-symbolic,4,123,5,4,False,258,1,1,7.033999999999992
3,non-symbolic,4,124,14,15,True,141,1,-1,8.031999999999996
3,non-symbolic,4,125,14,40,True,246,1,-1,8.532999999999992
3,non-symbolic,4,126,20,7,False,-1,-1,1,6.032000000000005
3,non-symbolic,4,127,28,40,True,590,1,-1,9.03300000000001
3,non-symbolic,4,128,7,4,False,337,1,1,6.532000000000001
3,non-symbolic,4,129,20,7,False,368,1,1,7.533000000000043
3,non-symbolic,4,130,20,40,True,331,1,-1,9.03300000000001
3,non-symbolic,4,131,28,29,False,541,0,-1,6.032999999999953
3,non-symbolic,4,132,20,57,True,826,1,-1,7.532000000000048
3,non-symbolic,4,133,5,2,False,544,1,1,6.531999999999958
3,non-symbolic,4,134,7,2,False,701,1,1,8.531999999999996
3,non-symbolic,4,135,28,10,False,523,1,1,8.033000000000044
3,non-symbolic,4,136,7,14,True,451,1,-1,7.031999999999978
3,non-symbolic,4,137,7,8,False,452,0,-1,7.031999999999968
3,non-symbolic,4,138,10,20,True,337,1,-1,6.531999999999991
3,non-symbolic,4,139,20,28,True,333,1,-1,9.032999999999987
3,non-symbolic,4,140,28,79,True,421,1,-1,8.032000000000034
3,non-symbolic,4,141,14,5,False,1009,1,1,7.5329999999999675
3,non-symbolic,4,142,10,5,False,207,1,1,8.533000000000044
3,non-symbolic,4,143,7,4,False,756,1,1,6.03300000000003
3,non-symbolic,4,144,5,10,True,391,1,-1,9.032999999999987
3,non-symbolic,5,145,14,40,True,422,1,-1,7.032999999999994
3,non-symbolic,5,146,20,7,False,340,1,1,9.034000000000006
3,non-symbolic,5,147,20,40,True,186,1,-1,6.031999999999991
3,non-symbolic,5,148,10,9,False,340,1,1,8.531999999999996
3,non-symbolic,5,149,10,5,False,558,1,1,8.031999999999991
3,non-symbolic,5,150,20,10,False,456,1,1,7.53200000000001
3,non-symbolic,5,151,28,79,True,238,1,-1,6.531999999999996
3,non-symbolic,5,152,5,7,False,850,0,-1,8.033000000000007
3,non-symbolic,5,153,28,10,False,410,1,1,8.534
3,non-symbolic,5,154,5,4,True,828,0,1,7.533000000000001
3,non-symbolic,5,155,20,19,True,382,0,1,6.033000000000001
3,non-symbolic,5,156,7,6,False,340,1,1,6.534000000000006
3,non-symbolic,5,157,10,9,False,822,1,1,9.032
3,non-symbolic,5,158,5,10,True,124,1,-1,7.033000000000001
3,non-symbolic,5,159,28,40,True,339,1,-1,8.032000000000005
3,non-symbolic,5,160,28,20,False,817,1,1,9.03500000000004
3,non-symbolic,5,161,7,20,True,485,1,-1,7.533000000000067
3,non-symbolic,5,162,7,6,False,256,1,1,7.033000000000001
3,non-symbolic,5,163,10,4,False,207,1,1,6.533000000000033
3,non-symbolic,5,164,28,79,True,918,1,-1,6.03300000000001
3,non-symbolic,5,165,20,40,True,156,1,-1,8.533000000000001
3,non-symbolic,5,166,20,7,False,2273,1,1,6.03300000000001
3,non-symbolic,5,167,5,4,False,764,1,1,7.032000000000015
3,non-symbolic,5,168,5,2,False,284,1,1,8.532999999999996
3,non-symbolic,5,169,10,5,False,532,1,1,9.034
3,non-symbolic,5,170,5,10,True,337,1,-1,7.53200000000002
3,non-symbolic,5,171,7,5,False,612,1,1,8.031999999999988
3,non-symbolic,5,172,14,13,False,830,1,1,6.531999999999982
3,non-symbolic,5,173,7,14,True,463,1,-1,8.03200000000001
3,non-symbolic,5,174,28,40,True,821,1,-1,7.032999999999986
3,non-symbolic,5,175,10,20,True,151,1,-1,6.032
3,non-symbolic,5,176,14,5,False,430,1,1,6.53300000000001
3,non-symbolic,5,177,14,40,True,397,1,-1,7.531999999999991
3,non-symbolic,5,178,14,7,False,321,1,1,9.03200000000001
3,non-symbolic,5,179,14,20,False,875,0,-1,8.533000000000001
3,non-symbolic,5,180,7,4,False,449,1,1,7.533999999999911
3,non-symbolic,6,181,28,56,True,184,1,-1,8.031999999999996
3,non-symbolic,6,182,14,13,False,228,1,1,9.032000000000004
3,non-symbolic,6,183,7,20,True,317,1,-1,7.532000000000001
3,non-symbolic,6,184,5,4,False,479,1,1,6.032000000000011
3,non-symbolic,6,185,10,20,True,188,1,-1,7.033000000000005
3,non-symbolic,6,186,20,57,True,496,1,-1,6.532
3,non-symbolic,6,187,10,20,True,602,1,-1,8.53100000000001
3,non-symbolic,6,188,7,14,True,310,1,-1,8.032000000000002
3,non-symbolic,6,189,14,13,False,623,1,1,7.532000000000005
3,non-symbolic,6,190,20,10,False,225,1,1,8.533000000000001
3,non-symbolic,6,191,20,28,True,172,1,-1,9.032000000000005
3,non-symbolic,6,192,5,14,True,441,1,-1,6.532000000000001
3,non-symbolic,6,193,28,27,False,562,1,1,6.032999999999996
3,non-symbolic,6,194,5,14,True,523,1,-1,7.0319999999999965
3,non-symbolic,6,195,14,28,True,284,1,-1,7.032000000000015
3,non-symbolic,6,196,7,2,False,105,1,1,6.533999999999992
3,non-symbolic,6,197,10,20,True,373,1,-1,8.031999999999977
3,non-symbolic,6,198,14,7,False,429,1,1,7.532999999999983
3,non-symbolic,6,199,7,4,False,384,1,1,8.532999999999987
3,non-symbolic,6,200,20,19,False,563,1,1,9.032
3,non-symbolic,6,201,10,5,False,660,1,1,6.032
3,non-symbolic,6,202,28,20,False,443,1,1,6.532999999999996
3,non-symbolic,6,203,14,5,False,459,1,1,8.033000000000024
3,non-symbolic,6,204,10,4,False,331,1,1,7.534000000000034
3,non-symbolic,6,205,5,4,False,737,1,1,9.032999999999973
3,non-symbolic,6,206,7,20,True,829,1,-1,7.032999999999968
3,non-symbolic,6,207,14,20,True,1034,1,-1,6.032000000000011
3,non-symbolic,6,208,10,20,True,693,1,-1,8.532000000000034
3,non-symbolic,6,209,5,7,True,990,1,-1,6.532000000000006
3,non-symbolic,6,210,5,4,False,546,1,1,8.531999999999973
3,non-symbolic,6,211,28,40,True,781,1,-1,6.033000000000024
3,non-symbolic,6,212,20,14,True,700,0,1,7.53300000000001
3,non-symbolic,6,213,20,10,False,567,1,1,8.033000000000001
3,non-symbolic,6,214,28,56,True,559,1,-1,9.03299999999993
3,non-symbolic,6,215,28,56,True,508,1,-1,7.032000000000024
3,non-symbolic,6,216,7,14,True,379,1,-1,7.533000000000001
4,non-symbolic,1,1,10,14,True,584,1,-1,6.5319999999999965
4,non-symbolic,1,2,7,5,False,814,1,1,8.53299999999999
4,non-symbolic,1,3,14,5,True,625,0,1,8.031999999999996
4,non-symbolic,1,4,28,20,True,558,0,1,7.033999999999995
4,non-symbolic,1,5,14,7,False,757,1,1,9.033000000000019
4,non-symbolic,1,6,10,28,True,350,1,-1,6.03300000000001
4,non-symbolic,1,7,28,56,True,457,1,-1,7.532
4,non-symbolic,1,8,14,13,True,1298,0,1,7.033999999999991
4,non-symbolic,1,9,5,4,False,596,1,1,8.532000000000005
4,non-symbolic,1,10,10,20,True,439,1,-1,6.031999999999996
4,non-symbolic,1,11,7,20,True,411,1,-1,9.033000000000005
4,non-symbolic,1,12,14,40,True,342,1,-1,8.032000000000005
4,non-symbolic,1,13,5,4,False,799,1,1,7.531999999999982
4,non-symbolic,1,14,7,10,True,375,1,-1,6.5319999999999965
4,non-symbolic,1,15,7,2,False,433,1,1,8.534
4,non-symbolic,1,16,5,14,True,365,1,-1,6.532999999999983
4,non-symbolic,1,17,20,57,True,348,1,-1,6.033000000000015
4,non-symbolic,1,18,20,57,True,282,1,-1,8.031999999999991
4,non-symbolic,1,19,20,40,True,267,1,-1,7.532000000000034
4,non-symbolic,1,20,7,10,True,311,1,-1,9.033000000000033
4,non-symbolic,1,21,7,10,True,394,1,-1,7.03400000000001
4,non-symbolic,1,22,28,79,True,289,1,-1,9.032000000000039
4,non-symbolic,1,23,10,28,True,273,1,-1,6.033000000000057
4,non-symbolic,1,24,5,4,False,466,1,1,8.032999999999976
4,non-symbolic,1,25,14,7,True,370,0,1,7.532999999999986
4,non-symbolic,1,26,20,7,False,293,1,1,6.5330000000002135
4,non-symbolic,1,27,5,10,True,341,1,-1,7.031999999999978
4,non-symbolic,1,28,28,27,True,313,0,1,8.532000000000114
4,non-symbolic,1,29,28,40,True,287,1,-1,6.031999999999987
4,non-symbolic,1,30,10,7,False,521,1,1,6.533000000000033
4,non-symbolic,1,31,5,10,True,288,1,-1,8.033000000000039
4,non-symbolic,1,32,28,10,False,317,1,1,9.03399999999992
4,non-symbolic,1,33,20,14,False,274,1,1,7.03199999999993
4,non-symbolic,1,34,20,14,False,269,1,1,8.532999999999967
4,non-symbolic,1,35,14,5,False,716,1,1,7.532000000000081
4,non-symbolic,1,36,10,9,True,517,0,1,9.031999999999968
4,non-symbolic,2,37,28,29,True,388,1,-1,8.033000000000001
4,non-symbolic,2,38,10,7,False,325,1,1,6.534999999999998
4,non-symbolic,2,39,7,4,False,269,1,1,7.031999999999988
4,non-symbolic,2,40,5,14,True,418,1,-1,6.032000000000002
4,non-symbolic,2,41,14,15,False,436,0,-1,9.032
4,non-symbolic,2,42,28,20,True,402,0,1,8.532
4,non-symbolic,2,43,5,3,False,303,1,1,7.533000000000006
4,non-symbolic,2,44,28,14,False,251,1,1,8.53200000000001
4,non-symbolic,2,45,28,56,True,450,1,-1,9.032999999999996
4,non-symbolic,2,46,28,56,True,243,1,-1,7.03200000000001
4,non-symbolic,2,47,14,40,True,261,1,-1,8.032000000000014
4,non-symbolic,2,48,5,3,False,337,1,1,7.532000000000006
4,non-symbolic,2,49,14,40,True,194,1,-1,6.031999999999986
4,non-symbolic,2,50,5,2,False,349,1,1,6.5330000000000155
4,non-symbolic,2,51,20,40,True,324,1,-1,8.531999999999973
4,non-symbolic,2,52,7,10,False,253,0,-1,9.033000000000024
4,non-symbolic,2,53,5,2,False,242,1,1,6.533000000000001
4,non-symbolic,2,54,5,7,True,439,1,-1,7.033000000000048
4,non-symbolic,2,55,10,14,True,43,1,-1,8.032
4,non-symbolic,2,56,28,56,True,45,1,-1,7.532000000000014
4,non-symbolic,2,57,10,4,False,147,1,1,6.03399999999992
4,non-symbolic,2,58,20,10,False,233,1,1,9.03200000000001
4,non-symbolic,2,59,7,2,False,224,1,1,6.034000000000054
4,non-symbolic,2,60,10,14,True,156,1,-1,8.531999999999991
4,non-symbolic,2,61,14,28,True,14,1,-1,8.03300000000001
4,non-symbolic,2,62,20,28,False,-1,-1,-1,7.032999999999986
4,non-symbolic,2,63,14,40,True,139,1,-1,7.532000000000006
4,non-symbolic,2,64,7,10,True,252,1,-1,6.5329999999999915
4,non-symbolic,2,65,10,5,False,159,1,1,9.031999999999934
4,non-symbolic,2,66,20,14,False,250,1,1,7.53199999999992
4,non-symbolic,2,67,20,21,True,521,1,-1,7.033000000000057
4,non-symbolic,2,68,14,20,True,136,1,-1,6.031999999999967
4,non-symbolic,2,69,7,5,False,250,1,1,8.032000000000059
4,non-symbolic,2,70,20,7,False,90,1,1,6.53300000000001
4,non-symbolic,2,71,10,11,True,461,1,-1,8.531999999999943
4,non-symbolic,2,72,7,20,True,10,1,-1,8.53399999999994
4,non-symbolic,3,73,5,10,True,118,1,-1,9.033
4,non-symbolic,3,74,5,4,False,475,1,1,8.032000000000009
4,non-symbolic,3,75,20,28,True,77,1,-1,7.532000000000001
4,non-symbolic,3,76,20,40,True,39,1,-1,7.032999999999996
4,non-symbolic,3,77,28,79,True,763,1,-1,6.532000000000005
4,non-symbolic,3,78,14,28,True,82,1,-1,6.032000000000005
4,non-symbolic,3,79,20,10,False,226,1,1,8.533000000000005
4,non-symbolic,3,80,10,28,True,160,1,-1,6.532999999999986
4,non-symbolic,3,81,10,14,False,275,0,-1,8.532999999999996
4,non-symbolic,3,82,28,27,True,99,0,1,8.03300000000001
4,non-symbolic,3,83,28,14,False,250,1,1,9.033000000000001
4,non-symbolic,3,84,14,28,True,118,1,-1,7.532999999999986
4,non-symbolic,3,85,10,20,True,252,1,-1,7.031999999999981
4,non-symbolic,3,86,7,14,True,404,1,-1,6.033000000000001
4,non-symbolic,3,87,14,7,False,206,1,1,8.033000000000005
4,non-symbolic,3,88,7,2,False,373,1,1,9.03200000000001
4,non-symbolic,3,89,5,10,True,33,1,-1,6.531999999999992
4,non-symbolic,3,90,14,20,True,232,1,-1,6.031999999999977
4,non-symbolic,3,91,10,5,False,247,1,1,7.033000000000057
4,non-symbolic,3,92,14,13,True,277,0,1,8.533999999999963
4,non-symbolic,3,93,7,6,False,340,1,1,7.532000000000038
4,non-symbolic,3,94,10,4,False,197,1,1,7.533000000000057
4,non-symbolic,3,95,7,20,True,380,1,-1,6.033000000000011
4,non-symbolic,3,96,20,28,True,301,1,-1,8.531999999999988
4,non-symbolic,3,97,20,40,True,226,1,-1,8.032999999999987
4,non-symbolic,3,98,5,7,True,404,1,-1,9.031999999999949
4,non-symbolic,3,99,5,3,False,192,1,1,7.032000000000059
4,non-symbolic,3,100,7,20,True,344,1,-1,6.533000000000006
4,non-symbolic,3,101,5,10,True,354,1,-1,9.033000000000001
4,non-symbolic,3,102,28,79,True,271,1,-1,6.53300000000001
4,non-symbolic,3,103,7,14,True,202,1,-1,7.532000000000082
4,non-symbolic,3,104,14,10,True,362,0,1,7.032000000000048
4,non-symbolic,3,105,28,10,False,337,1,1,8.034000000000157
4,non-symbolic,3,106,20,10,False,298,1,1,8.53300000000009
4,non-symbolic,3,107,10,20,True,62,1,-1,6.0329999999999675
4,non-symbolic,3,108,28,79,True,255,1,-1,6.032000000000057
4,non-symbolic,4,109,5,14,True,156,1,-1,8.532000000000002
4,non-symbolic,4,110,28,14,False,178,1,1,6.032000000000005
4,non-symbolic,4,111,14,20,True,282,1,-1,7.532000000000005
4,non-symbolic,4,112,20,10,False,248,1,1,6.53300000000001
4,non-symbolic,4,113,14,28,True,56,1,-1,8.032
4,non-symbolic,4,114,5,2,False,276,1,1,9.032999999999996
4,non-symbolic,4,115,5,3,False,258,1,1,7.033000000000001
4,non-symbolic,4,116,28,10,True,549,0,1,6.533999999999991
4,non-symbolic,4,117,7,5,False,164,1,1,7.032999999999978
4,non-symbolic,4,118,20,7,False,111,1,1,9.032999999999976
4,non-symbolic,4,119,5,6,True,251,1,-1,7.5329999999999915
4,non-symbolic,4,120,20,40,True,210,1,-1,8.031999999999925
4,non-symbolic,4,121,10,20,True,187,1,-1,6.031999999999981
4,non-symbolic,4,122,5,14,True,171,1,-1,8.532000000000005
4,non-symbolic,4,123,20,10,False,176,1,1,6.0330000000000386
4,non-symbolic,4,124,7,8,True,198,1,-1,8.531999999999982
4,non-symbolic,4,125,20,14,True,56,0,1,8.032999999999976
4,non-symbolic,4,126,10,4,False,88,1,1,7.531999999999977
4,non-symbolic,4,127,10,20,True,912,1,-1,7.034000000000001
4,non-symbolic,4,128,14,20,True,599,1,-1,6.532
4,non-symbolic,4,129,10,11,False,425,0,-1,9.031999999999991
4,non-symbolic,4,130,7,4,False,455,1,1,7.531999999999988
4,non-symbolic,4,131,14,40,True,294,1,-1,7.031999999999987
4,non-symbolic,4,132,28,14,False,288,1,1,9.031999999999957
4,non-symbolic,4,133,7,14,True,313,1,-1,8.533000000000001
4,non-symbolic,4,134,28,14,False,274,1,1,6.53300000000001
4,non-symbolic,4,135,10,28,True,373,1,-1,8.033000000000001
4,non-symbolic,4,136,7,5,False,280,1,1,6.032999999999978
4,non-symbolic,4,137,7,5,False,357,1,1,7.034000000000048
4,non-symbolic,4,138,28,10,True,204,0,1,6.03300000000001
4,non-symbolic,4,139,28,20,False,295,1,1,9.03300000000001
4,non-symbolic,4,140,10,4,False,360,1,1,8.532
4,non-symbolic,4,141,20,40,True,383,1,-1,7.531999999999991
4,non-symbolic,4,142,14,7,False,299,1,1,8.032000000000025
4,non-symbolic,4,143,14,28,True,316,1,-1,6.533000000000034
4,non-symbolic,4,144,5,2,False,315,1,1,6.532000000000006
4,non-symbolic,5,145,5,7,True,273,1,-1,9.031999999999998
4,non-symbolic,5,146,14,28,True,309,1,-1,7.533000000000005
4,non-symbolic,5,147,28,10,False,261,1,1,6.03200000000001
4,non-symbolic,5,148,10,14,False,589,0,-1,7.032999999999993
4,non-symbolic,5,149,5,7,True,505,1,-1,8.032000000000002
4,non-symbolic,5,150,28,29,True,320,1,-1,6.533000000000005
4,non-symbolic,5,151,28,40,True,270,1,-1,8.531999999999991
4,non-symbolic,5,152,10,4,False,312,1,1,9.031999999999991
4,non-symbolic,5,153,20,28,True,278,1,-1,6.032999999999996
4,non-symbolic,5,154,5,10,True,135,1,-1,7.031999999999988
4,non-symbolic,5,155,20,21,True,313,1,-1,7.533000000000033
4,non-symbolic,5,156,14,15,False,227,0,-1,8.032999999999976
4,non-symbolic,5,157,20,28,True,205,1,-1,6.5329999999999435
4,non-symbolic,5,158,28,40,True,301,1,-1,8.533000000000005
4,non-symbolic,5,159,14,20,True,99,1,-1,7.03200000000002
4,non-symbolic,5,160,7,8,True,659,1,-1,9.031999999999991
4,non-symbolic,5,161,14,10,True,619,0,1,8.53200000000002
4,non-symbolic,5,162,20,28,True,210,1,-1,7.532000000000034
4,non-symbolic,5,163,14,40,True,247,1,-1,6.533000000000024
4,non-symbolic,5,164,10,7,False,258,1,1,6.032000000000048
4,non-symbolic,5,165,20,57,True,308,1,-1,8.032000000000025
4,non-symbolic,5,166,5,14,True,271,1,-1,7.532000000000006
4,non-symbolic,5,167,14,10,True,349,0,1,6.532
4,non-symbolic,5,168,7,20,True,259,1,-1,7.033000000000011
4,non-symbolic,5,169,5,14,True,304,1,-1,8.532999999999987
4,non-symbolic,5,170,7,8,True,393,1,-1,9.031999999999988
4,non-symbolic,5,171,10,20,True,254,1,-1,6.034000000000034
4,non-symbolic,5,172,10,20,True,204,1,-1,8.031999999999982
4,non-symbolic,5,173,5,2,False,236,1,1,7.531999999999992
4,non-symbolic,5,174,7,8,True,571,1,-1,8.532999999999976
4,non-symbolic,5,175,28,14,False,350,1,1,7.032999999999986
4,non-symbolic,5,176,10,11,True,392,1,-1,6.031999999999981
4,non-symbolic,5,177,7,20,True,258,1,-1,9.032999999999976
4,non-symbolic,5,178,28,56,True,134,1,-1,8.032
4,non-symbolic,5,179,7,8,False,527,0,-1,6.531999999999991
4,non-symbolic,5,180,20,7,False,168,1,1,6.0319999999999725
4,non-symbolic,6,181,10,28,True,128,1,-1,7.532999999999998
4,non-symbolic,6,182,5,14,True,357,1,-1,8.031999999999993
4,non-symbolic,6,183,5,7,True,613,1,-1,6.032999999999997
4,non-symbolic,6,184,20,28,True,346,1,-1,9.032
4,non-symbolic,6,185,14,10,True,504,0,1,6.531999999999984
4,non-symbolic,6,186,20,40,True,259,1,-1,8.533999999999981
4,non-symbolic,6,187,5,4,False,561,1,1,7.031000000000001
4,non-symbolic,6,188,7,2,False,308,1,1,6.032000000000001
4,non-symbolic,6,189,28,56,True,204,1,-1,7.53200000000002
4,non-symbolic,6,190,14,10,False,307,1,1,7.033
4,non-symbolic,6,191,14,5,False,270,1,1,9.032000000000005
4,non-symbolic,6,192,7,5,False,218,1,1,8.532999999999996
4,non-symbolic,6,193,7,5,False,261,1,1,6.533999999999983
4,non-symbolic,6,194,10,20,True,301,1,-1,8.033000000000001
4,non-symbolic,6,195,7,8,True,674,1,-1,8.032000000000002
4,non-symbolic,6,196,5,7,True,844,1,-1,7.533000000000001
4,non-symbolic,6,197,28,56,True,203,1,-1,8.532000000000034
4,non-symbolic,6,198,28,40,True,227,1,-1,7.033000000000015
4,non-symbolic,6,199,5,6,True,653,1,-1,9.031999999999982
4,non-symbolic,6,200,20,57,True,102,1,-1,6.034000000000001
4,non-symbolic,6,201,28,20,True,319,0,1,6.531999999999957
4,non-symbolic,6,202,28,40,True,248,1,-1,7.532999999999986
4,non-symbolic,6,203,14,20,False,270,0,-1,8.034000000000043
4,non-symbolic,6,204,10,7,False,266,1,1,6.034000000000053
4,non-symbolic,6,205,7,10,True,326,1,-1,9.033000000000015
4,non-symbolic,6,206,14,10,False,362,1,1,7.03300000000001
4,non-symbolic,6,207,20,28,True,301,1,-1,8.532000000000082
4,non-symbolic,6,208,5,4,False,334,1,1,6.5319999999999965
4,non-symbolic,6,209,7,14,True,308,1,-1,8.532000000000039
4,non-symbolic,6,210,28,10,False,215,1,1,7.53200000000002
4,non-symbolic,6,211,10,7,True,368,0,1,8.031999999999877
4,non-symbolic,6,212,10,7,False,214,1,1,9.032000000000014
4,non-symbolic,6,213,14,10,False,640,1,1,6.532999999999976
4,non-symbolic,6,214,20,10,False,226,1,1,7.032000000000034
4,non-symbolic,6,215,20,7,False,273,1,1,6.033
4,non-symbolic,6,216,10,20,True,300,1,-1,7.032999999999968
5,non-symbolic,1,1,20,10,False,854,1,1,8.03200000000001
5,non-symbolic,1,2,7,2,False,1307,1,1,9.034000000000006
5,non-symbolic,1,3,28,20,False,1172,1,1,6.032000000000005
5,non-symbolic,1,4,14,28,True,569,1,-1,7.532
5,non-symbolic,1,5,7,2,False,885,1,1,6.533000000000005
5,non-symbolic,1,6,5,6,True,1196,1,-1,7.032000000000002
5,non-symbolic,1,7,20,28,True,500,1,-1,8.531999999999996
5,non-symbolic,1,8,5,4,False,907,1,1,7.533999999999977
5,non-symbolic,1,9,10,4,False,625,1,1,8.532
5,non-symbolic,1,10,5,10,True,638,1,-1,6.532999999999991
5,non-symbolic,1,11,28,56,True,421,1,-1,7.032000000000024
5,non-symbolic,1,12,14,20,True,703,1,-1,9.031999999999943
5,non-symbolic,1,13,20,21,False,422,0,-1,6.034000000000025
5,non-symbolic,1,14,28,20,False,495,1,1,8.03200000000001
5,non-symbolic,1,15,28,10,False,633,1,1,7.533000000000033
5,non-symbolic,1,16,10,4,False,374,1,1,6.5330000000000386
5,non-symbolic,1,17,20,14,True,745,0,1,8.53200000000001
5,non-symbolic,1,18,7,4,False,447,1,1,6.032999999999976
5,non-symbolic,1,19,10,5,False,300,1,1,9.032
5,non-symbolic,1,20,10,7,False,515,1,1,8.033000000000044
5,non-symbolic,1,21,14,15,True,1176,1,-1,7.032999999999986
5,non-symbolic,1,22,28,20,False,480,1,1,6.53300000000002
5,non-symbolic,1,23,7,5,False,543,1,1,6.034000000000034
5,non-symbolic,1,24,14,28,True,700,1,-1,7.032000000000034
5,non-symbolic,1,25,7,2,False,749,1,1,8.533000000000001
5,non-symbolic,1,26,20,28,True,553,1,-1,8.031999999999977
5,non-symbolic,1,27,7,5,False,515,1,1,7.532000000000048
5,non-symbolic,1,28,5,2,False,539,1,1,9.032000000000034
5,non-symbolic,1,29,20,57,True,600,1,-1,7.031999999999967
5,non-symbolic,1,30,5,6,True,739,1,-1,8.532000000000005
5,non-symbolic,1,31,5,3,False,1033,1,1,8.032000000000124
5,non-symbolic,1,32,10,14,True,571,1,-1,6.534000000000053
5,non-symbolic,1,33,10,4,False,554,1,1,7.531999999999953
5,non-symbolic,1,34,28,20,False,488,1,1,6.032000000000034
5,non-symbolic,1,35,14,15,False,1671,0,-1,9.03299999999992
5,non-symbolic,1,36,14,5,False,514,1,1,7.033000000000043
5,non-symbolic,2,37,10,28,True,451,1,-1,8.032
5,non-symbolic,2,38,20,7,False,560,1,1,9.032999999999996
5,non-symbolic,2,39,20,10,False,565,1,1,8.53300000000001
5,non-symbolic,2,40,5,4,False,686,1,1,7.533000000000007
5,non-symbolic,2,41,14,13,True,908,0,1,6.532999999999996
5,non-symbolic,2,42,5,14,True,458,1,-1,7.0319999999999965
5,non-symbolic,2,43,28,14,False,465,1,1,6.031999999999996
5,non-symbolic,2,44,5,14,True,408,1,-1,9.03300000000001
5,non-symbolic,2,45,14,40,True,609,1,-1,8.032999999999996
5,non-symbolic,2,46,10,9,True,1872,0,1,7.532999999999976
5,non-symbolic,2,47,7,5,False,782,1,1,6.03200000000001
5,non-symbolic,2,48,14,28,True,645,1,-1,8.533999999999992
5,non-symbolic,2,49,7,4,False,518,1,1,6.531999999999977
5,non-symbolic,2,50,5,2,False,385,1,1,7.032999999999997
5,non-symbolic,2,51,14,7,False,633,1,1,9.031999999999982
5,non-symbolic,2,52,14,10,False,620,1,1,6.532999999999996
5,non-symbolic,2,53,28,27,True,2400,0,1,6.03300000000002
5,non-symbolic,2,54,5,3,False,351,1,1,7.033000000000011
5,non-symbolic,2,55,28,14,False,403,1,1,7.5339999999999865
5,non-symbolic,2,56,20,28,False,582,0,-1,8.532000000000082
5,non-symbolic,2,57,7,10,True,669,1,-1,8.032000000000057
5,non-symbolic,2,58,7,10,True,792,1,-1,8.032000000000034
5,non-symbolic,2,59,7,2,False,424,1,1,7.032000000000081
5,non-symbolic,2,60,10,28,True,617,1,-1,6.532000000000057
5,non-symbolic,2,61,10,20,True,602,1,-1,6.031999999999921
5,non-symbolic,2,62,10,14,True,1647,1,-1,7.532000000000034
5,non-symbolic,2,63,20,28,True,571,1,-1,8.531999999999929
5,non-symbolic,2,64,20,57,True,454,1,-1,9.03199999999992
5,non-symbolic,2,65,7,2,False,398,1,1,7.032
5,non-symbolic,2,66,28,27,True,1857,0,1,8.532000000000025
5,non-symbolic,2,67,28,20,False,418,1,1,8.032999999999987
5,non-symbolic,2,68,5,3,False,406,1,1,9.032000000000082
5,non-symbolic,2,69,10,5,False,415,1,1,6.032000000000067
5,non-symbolic,2,70,20,14,False,392,1,1,7.533000000000128
5,non-symbolic,2,71,14,40,True,550,1,-1,6.532999999999976
5,non-symbolic,2,72,28,14,False,525,1,1,8.032000000000105
5,non-symbolic,3,73,7,14,True,512,1,-1,6.5330000000000075
5,non-symbolic,3,74,28,40,True,1373,1,-1,6.032000000000002
5,non-symbolic,3,75,7,4,False,314,1,1,7.031999999999996
5,non-symbolic,3,76,10,7,False,1075,1,1,9.033000000000001
5,non-symbolic,3,77,5,14,True,467,1,-1,8.032999999999996
5,non-symbolic,3,78,10,5,False,857,1,1,8.532
5,non-symbolic,3,79,14,15,True,613,1,-1,7.532999999999991
5,non-symbolic,3,80,10,14,True,405,1,-1,8.033000000000005
5,non-symbolic,3,81,28,40,True,522,1,-1,7.031999999999991
5,non-symbolic,3,82,20,7,False,701,1,1,6.0339999999999865
5,non-symbolic,3,83,28,79,True,337,1,-1,9.033000000000001
5,non-symbolic,3,84,10,20,True,1361,1,-1,8.533000000000005
5,non-symbolic,3,85,5,14,True,771,1,-1,7.532000000000011
5,non-symbolic,3,86,5,10,False,408,0,-1,6.532000000000002
5,non-symbolic,3,87,5,14,False,391,0,-1,6.032999999999987
5,non-symbolic,3,88,7,2,False,868,1,1,8.533999999999967
5,non-symbolic,3,89,20,28,True,524,1,-1,7.031999999999991
5,non-symbolic,3,90,20,7,False,974,1,1,9.032999999999982
5,non-symbolic,3,91,14,28,True,743,1,-1,8.032000000000025
5,non-symbolic,3,92,14,10,False,533,1,1,6.532999999999953
5,non-symbolic,3,93,5,3,False,392,1,1,7.531999999999954
5,non-symbolic,3,94,7,4,False,1236,1,1,7.532999999999976
5,non-symbolic,3,95,14,28,True,640,1,-1,6.533
5,non-symbolic,3,96,14,15,True,1229,1,-1,8.033000000000033
5,non-symbolic,3,97,14,20,True,552,1,-1,7.031999999999958
5,non-symbolic,3,98,10,7,False,413,1,1,6.032000000000029
5,non-symbolic,3,99,20,10,False,1614,1,1,9.032
5,non-symbolic,3,100,28,14,False,1738,1,1,8.53200000000001
5,non-symbolic,3,101,28,79,True,254,1,-1,6.532000000000081
5,non-symbolic,3,102,5,14,True,893,1,-1,7.532000000000038
5,non-symbolic,3,103,10,11,False,1201,0,-1,7.031999999999954
5,non-symbolic,3,104,7,4,False,1698,1,1,8.532
5,non-symbolic,3,105,28,10,False,356,1,1,6.031999999999977
5,non-symbolic,3,106,20,40,True,174,1,-1,8.03200000000001
5,non-symbolic,3,107,20,14,False,549,1,1,9.031999999999986
5,non-symbolic,3,108,7,2,False,819,1,1,7.5329999999999915
5,non-symbolic,4,109,7,10,True,595,1,-1,6.033000000000005
5,non-symbolic,4,110,28,40,True,832,1,-1,7.033000000000006
5,non-symbolic,4,111,20,10,False,1725,1,1,6.532999999999998
5,non-symbolic,4,112,7,10,True,512,1,-1,9.033999999999992
5,non-symbolic,4,113,28,10,False,383,1,1,8.031999999999998
5,non-symbolic,4,114,10,4,False,424,1,1,7.533999999999981
5,non-symbolic,4,115,5,2,False,555,1,1,8.533999999999983
5,non-symbolic,4,116,10,11,True,1127,1,-1,6.032999999999997
5,non-symbolic,4,117,5,3,False,567,1,1,8.032999999999982
5,non-symbolic,4,118,10,4,False,475,1,1,7.034000000000005
5,non-symbolic,4,119,10,7,False,1924,1,1,9.033000000000005
5,non-symbolic,4,120,14,15,True,561,1,-1,8.531999999999982
5,non-symbolic,4,121,7,8,False,1736,0,-1,6.532
5,non-symbolic,4,122,14,7,False,497,1,1,7.53200000000001
5,non-symbolic,4,123,14,15,True,441,1,-1,6.034000000000015
5,non-symbolic,4,124,10,11,True,570,1,-1,7.033000000000048
5,non-symbolic,4,125,28,14,True,746,0,1,6.53400000000001
5,non-symbolic,4,126,14,40,True,1003,1,-1,7.533999999999991
5,non-symbolic,4,127,7,20,False,-1,-1,-1,9.032
5,non-symbolic,4,128,7,8,True,816,1,-1,8.532
5,non-symbolic,4,129,20,21,True,937,1,-1,8.033000000000019
5,non-symbolic,4,130,5,4,False,997,1,1,8.033000000000035
5,non-symbolic,4,131,14,10,False,1368,1,1,6.531999999999977
5,non-symbolic,4,132,28,29,True,1445,1,-1,7.03300000000001
5,non-symbolic,4,133,5,10,True,516,1,-1,6.031999999999958
5,non-symbolic,4,134,10,7,False,583,1,1,7.532000000000011
5,non-symbolic,4,135,28,79,True,637,1,-1,8.532999999999976
5,non-symbolic,4,136,7,10,False,541,0,-1,9.032
5,non-symbolic,4,137,20,7,False,402,1,1,8.533000000000001
5,non-symbolic,4,138,5,4,False,995,1,1,6.034000000000002
5,non-symbolic,4,139,20,14,False,1532,1,1,6.531999999999977
5,non-symbolic,4,140,14,40,True,557,1,-1,8.031999999999977
5,non-symbolic,4,141,28,10,False,1034,1,1,7.03200000000001
5,non-symbolic,4,142,5,2,False,825,1,1,7.5329999999999915
5,non-symbolic,4,143,20,40,True,247,1,-1,9.031999999999968
5,non-symbolic,4,144,20,40,True,1031,1,-1,7.531999999999967
5,non-symbolic,5,145,7,4,False,496,1,1,9.033000000000001
5,non-symbolic,5,146,14,13,True,1462,0,1,6.533000000000001
5,non-symbolic,5,147,28,27,False,2051,1,1,7.534000000000005
5,non-symbolic,5,148,7,6,False,1078,1,1,8.033000000000003
5,non-symbolic,5,149,14,20,True,612,1,-1,7.034000000000001
5,non-symbolic,5,150,5,7,True,662,1,-1,6.031999999999996
5,non-symbolic,5,151,20,19,False,1633,1,1,8.533000000000001
5,non-symbolic,5,152,20,7,False,384,1,1,8.53299999999999
5,non-symbolic,5,153,28,27,True,1372,0,1,7.03200000000001
5,non-symbolic,5,154,28,27,True,1541,0,1,8.032999999999987
5,non-symbolic,5,155,10,4,False,675,1,1,6.032
5,non-symbolic,5,156,10,4,False,390,1,1,6.531999999999977
5,non-symbolic,5,157,5,2,False,1552,1,1,7.5330000000000155
5,non-symbolic,5,158,10,14,True,630,1,-1,9.032000000000057
5,non-symbolic,5,159,20,19,True,1566,0,1,8.533000000000005
5,non-symbolic,5,160,14,10,False,830,1,1,8.031
5,non-symbolic,5,161,7,4,False,393,1,1,7.033
5,non-symbolic,5,162,28,79,True,457,1,-1,7.531999999999953
5,non-symbolic,5,163,28,56,True,468,1,-1,9.033000000000033
5,non-symbolic,5,164,5,14,True,385,1,-1,6.033000000000011
5,non-symbolic,5,165,20,10,False,436,1,1,6.5339999999999865
5,non-symbolic,5,166,5,7,False,-1,-1,-1,7.032000000000015
5,non-symbolic,5,167,5,10,True,528,1,-1,9.033000000000039
5,non-symbolic,5,168,7,10,True,611,1,-1,6.03300000000001
5,non-symbolic,5,169,5,7,True,1058,1,-1,8.032000000000039
5,non-symbolic,5,170,7,4,False,401,1,1,7.531999999999967
5,non-symbolic,5,171,20,14,True,1295,0,1,6.532000000000034
5,non-symbolic,5,172,10,4,False,360,1,1,8.533000000000033
5,non-symbolic,5,173,14,28,True,379,1,-1,7.032999999999976
5,non-symbolic,5,174,10,7,False,690,1,1,8.033000000000001
5,non-symbolic,5,175,14,20,True,304,1,-1,8.532000000000034
5,non-symbolic,5,176,10,28,True,1157,1,-1,6.033000000000001
5,non-symbolic,5,177,14,10,False,690,1,1,9.033000000000001
5,non-symbolic,5,178,7,4,False,591,1,1,6.5329999999999675
5,non-symbolic,5,179,20,40,True,298,1,-1,7.532999999999953
5,non-symbolic,5,180,28,40,True,305,1,-1,8.532999999999967
5,non-symbolic,6,181,28,27,True,1267,0,1,6.532000000000003
5,non-symbolic,6,182,14,13,False,874,1,1,7.031999999999996
5,non-symbolic,6,183,14,5,False,451,1,1,7.532000000000003
5,non-symbolic,6,184,20,57,True,562,1,-1,9.03300000000001
5,non-symbolic,6,185,10,14,True,1089,1,-1,8.032999999999989
5,non-symbolic,6,186,10,14,True,662,1,-1,8.532
5,non-symbolic,6,187,7,20,True,582,1,-1,6.033
5,non-symbolic,6,188,7,2,False,637,1,1,8.533999999999992
5,non-symbolic,6,189,28,10,True,1416,0,1,7.032
5,non-symbolic,6,190,14,20,True,926,1,-1,6.031999999999991
5,non-symbolic,6,191,28,40,True,601,1,-1,8.032999999999996
5,non-symbolic,6,192,5,2,False,651,1,1,9.03300000000002
5,non-symbolic,6,193,20,57,True,308,1,-1,6.532999999999986
5,non-symbolic,6,194,7,2,False,482,1,1,7.531999999999996
5,non-symbolic,6,195,7,4,False,543,1,1,7.032999999999972
5,non-symbolic,6,196,20,19,True,309,0,1,8.03300000000001
5,non-symbolic,6,197,28,14,False,924,1,1,9.033000000000001
5,non-symbolic,6,198,5,2,False,320,1,1,8.53300000000001
5,non-symbolic,6,199,14,13,True,761,0,1,6.032000000000034
5,non-symbolic,6,200,20,10,False,1070,1,1,7.53300000000001
5,non-symbolic,6,201,5,7,True,881,1,-1,6.532000000000038
5,non-symbolic,6,202,10,20,True,648,1,-1,8.532
5,non-symbolic,6,203,20,28,True,884,1,-1,7.032999999999976
5,non-symbolic,6,204,10,4,False,850,1,1,7.53400000000001
5,non-symbolic,6,205,10,7,False,801,1,1,9.03300000000001
5,non-symbolic,6,206,10,20,True,522,1,-1,6.032999999999963
5,non-symbolic,6,207,7,5,False,340,1,1,8.033000000000001
5,non-symbolic,6,208,28,56,True,593,1,-1,6.53200000000001
5,non-symbolic,6,209,5,10,True,966,1,-1,7.532999999999976
5,non-symbolic,6,210,14,28,True,146,1,-1,8.032
5,non-symbolic,6,211,5,4,False,485,1,1,6.033
5,non-symbolic,6,212,28,20,False,1126,1,1,9.032999999999976
5,non-symbolic,6,213,20,57,True,436,1,-1,7.03200000000001
5,non-symbolic,6,214,7,14,True,963,1,-1,6.532
5,non-symbolic,6,215,5,4,False,579,1,1,8.53300000000001
5,non-symbolic,6,216,14,13,True,827,0,1,7.032000000000114
6,non-symbolic,1,1,7,5,False,845,1,1,9.031999999999991
6,non-symbolic,1,2,28,14,False,470,1,1,7.033000000000005
6,non-symbolic,1,3,10,4,False,550,1,1,6.532999999999997
6,non-symbolic,1,4,10,20,True,420,1,-1,6.034000000000005
6,non-symbolic,1,5,14,28,True,284,1,-1,8.532999999999996
6,non-symbolic,1,6,7,20,True,68,1,-1,7.532
6,non-symbolic,1,7,7,2,False,787,1,1,8.033000000000005
6,non-symbolic,1,8,28,14,False,569,1,1,9.031999999999996
6,non-symbolic,1,9,28,79,True,272,1,-1,6.033000000000005
6,non-symbolic,1,10,20,10,False,582,1,1,6.5339999999999625
6,non-symbolic,1,11,7,8,True,1026,1,-1,7.532999999999976
6,non-symbolic,1,12,20,14,False,654,1,1,8.032999999999967
6,non-symbolic,1,13,14,7,False,654,1,1,8.532
6,non-symbolic,1,14,20,14,False,369,1,1,7.03200000000001
6,non-symbolic,1,15,10,14,True,676,1,-1,8.032
6,non-symbolic,1,16,5,10,True,669,1,-1,7.53300000000001
6,non-symbolic,1,17,28,10,False,438,1,1,8.533000000000001
6,non-symbolic,1,18,7,14,True,527,1,-1,6.531999999999972
6,non-symbolic,1,19,20,14,False,674,1,1,9.033000000000001
6,non-symbolic,1,20,5,3,False,771,1,1,7.033000000000001
6,non-symbolic,1,21,5,14,True,609,1,-1,6.033999999999967
6,non-symbolic,1,22,5,10,True,349,1,-1,9.033999999999997
6,non-symbolic,1,23,10,11,True,977,1,-1,7.032
6,non-symbolic,1,24,28,10,False,173,1,1,6.031999999999977
6,non-symbolic,1,25,14,10,False,371,1,1,6.53200000000001
6,non-symbolic,1,26,5,6,True,1035,1,-1,8.031999999999982
6,non-symbolic,1,27,14,40,True,333,1,-1,8.532000000000034
6,non-symbolic,1,28,10,5,False,301,1,1,7.532
6,non-symbolic,1,29,20,14,True,480,0,1,7.031999999999991
6,non-symbolic,1,30,5,3,False,320,1,1,6.533000000000001
6,non-symbolic,1,31,14,20,True,55,1,-1,6.031000000000024
6,non-symbolic,1,32,14,5,False,279,1,1,8.532999999999976
6,non-symbolic,1,33,20,10,False,486,1,1,8.03299999999991
6,non-symbolic,1,34,7,20,True,330,1,-1,7.533
6,non-symbolic,1,35,28,56,True,187,1,-1,9.032000000000082
6,non-symbolic,1,36,10,11,False,357,0,-1,8.531999999999973
6,non-symbolic,2,37,28,10,False,384,1,1,7.534000000000001
6,non-symbolic,2,38,14,10,False,525,1,1,9.034000000000002
6,non-symbolic,2,39,20,19,False,582,1,1,8.031999999999996
6,non-symbolic,2,40,14,20,True,416,1,-1,6.532000000000005
6,non-symbolic,2,41,10,5,False,849,1,1,6.032999999999999
6,non-symbolic,2,42,10,4,False,414,1,1,7.03400000000001
6,non-symbolic,2,43,5,4,False,713,1,1,8.531999999999996
6,non-symbolic,2,44,5,14,True,420,1,-1,6.031999999999978
6,non-symbolic,2,45,20,14,False,417,1,1,8.533999999999981
6,non-symbolic,2,46,7,5,False,473,1,1,9.031999999999986
6,non-symbolic,2,47,7,14,True,596,1,-1,7.533000000000005
6,non-symbolic,2,48,20,40,True,385,1,-1,7.033
6,non-symbolic,2,49,10,20,True,48,1,-1,6.531999999999977
6,non-symbolic,2,50,28,79,True,530,1,-1,8.033000000000015
6,non-symbolic,2,51,7,20,True,243,1,-1,7.532000000000025
6,non-symbolic,2,52,5,14,True,328,1,-1,8.532000000000016
6,non-symbolic,2,53,7,20,True,263,1,-1,8.034000000000024
6,non-symbolic,2,54,20,7,False,250,1,1,6.532
6,non-symbolic,2,55,5,4,False,795,1,1,9.032999999999959
6,non-symbolic,2,56,10,14,True,335,1,-1,7.031999999999992
6,non-symbolic,2,57,14,10,False,598,1,1,6.033000000000043
6,non-symbolic,2,58,20,7,False,313,1,1,7.531999999999967
6,non-symbolic,2,59,14,13,True,731,0,1,7.0339999999999625
6,non-symbolic,2,60,5,4,False,507,1,1,8.532000000000014
6,non-symbolic,2,61,10,20,True,564,1,-1,6.03200000000001
6,non-symbolic,2,62,14,13,False,749,1,1,6.531999999999977
6,non-symbolic,2,63,28,40,True,509,1,-1,9.032
6,non-symbolic,2,64,28,56,True,310,1,-1,8.033000000000001
6,non-symbolic,2,65,7,4,False,421,1,1,9.031999999999957
6,non-symbolic,2,66,20,14,False,853,1,1,7.03300000000002
6,non-symbolic,2,67,14,40,True,456,1,-1,8.032
6,non-symbolic,2,68,7,4,False,582,1,1,8.533000000000001
6,non-symbolic,2,69,28,20,True,321,0,1,6.032999999999963
6,non-symbolic,2,70,5,2,False,359,1,1,6.532999999999944
6,non-symbolic,2,71,28,79,True,341,1,-1,7.533000000000033
6,non-symbolic,2,72,10,9,False,714,1,1,8.033000000000001
6,non-symbolic,3,73,7,10,True,714,1,-1,7.032000000000001
6,non-symbolic,3,74,20,14,False,690,1,1,8.534
6,non-symbolic,3,75,5,7,True,741,1,-1,6.032000000000003
6,non-symbolic,3,76,5,4,False,833,1,1,6.532999999999997
6,non-symbolic,3,77,7,2,False,389,1,1,8.032000000000018
6,non-symbolic,3,78,10,4,False,387,1,1,9.032999999999996
6,non-symbolic,3,79,5,7,True,512,1,-1,7.531999999999996
6,non-symbolic,3,80,14,20,True,323,1,-1,7.033000000000005
6,non-symbolic,3,81,10,28,True,301,1,-1,6.0319999999999965
6,non-symbolic,3,82,10,28,True,426,1,-1,6.53400000000001
6,non-symbolic,3,83,14,13,False,543,1,1,8.033000000000001
6,non-symbolic,3,84,5,7,True,629,1,-1,7.532000000000001
6,non-symbolic,3,85,7,6,False,988,1,1,9.032999999999996
6,non-symbolic,3,86,20,19,True,400,0,1,8.533999999999995
6,non-symbolic,3,87,5,14,True,455,1,-1,7.532999999999991
6,non-symbolic,3,88,14,10,False,385,1,1,9.031999999999996
6,non-symbolic,3,89,20,10,False,482,1,1,7.03300000000001
6,non-symbolic,3,90,10,14,True,1070,1,-1,6.532000000000002
6,non-symbolic,3,91,20,57,True,348,1,-1,8.532999999999953
6,non-symbolic,3,92,28,14,False,367,1,1,8.032
6,non-symbolic,3,93,14,28,True,574,1,-1,6.034000000000034
6,non-symbolic,3,94,20,10,False,332,1,1,8.032000000000025
6,non-symbolic,3,95,28,20,True,1071,0,1,6.0320000000000435
6,non-symbolic,3,96,28,40,True,266,1,-1,8.532999999999962
6,non-symbolic,3,97,5,10,True,430,1,-1,6.532999999999964
6,non-symbolic,3,98,7,2,False,332,1,1,9.033000000000033
6,non-symbolic,3,99,7,5,False,490,1,1,7.031999999999892
6,non-symbolic,3,100,14,20,True,435,1,-1,7.533
6,non-symbolic,3,101,7,10,False,745,0,-1,6.5329999999999195
6,non-symbolic,3,102,28,10,True,446,0,1,8.5330000000001
6,non-symbolic,3,103,10,5,False,434,1,1,7.532999999999986
6,non-symbolic,3,104,14,7,False,133,1,1,8.032
6,non-symbolic,3,105,28,56,True,280,1,-1,6.034000000000019
6,non-symbolic,3,106,28,14,False,222,1,1,7.031999999999977
6,non-symbolic,3,107,10,9,True,1109,0,1,9.032000000000057
6,non-symbolic,3,108,20,7,False,168,1,1,6.533000000000067
6,non-symbolic,4,109,28,29,False,746,0,-1,8.533000000000001
6,non-symbolic,4,110,14,7,False,367,1,1,7.034000000000004
6,non-symbolic,4,111,14,28,True,486,1,-1,9.032999999999994
6,non-symbolic,4,112,7,10,False,1203,0,-1,6.033
6,non-symbolic,4,113,14,10,True,830,0,1,6.533000000000012
6,non-symbolic,4,114,20,21,True,592,1,-1,8.03200000000001
6,non-symbolic,4,115,10,7,False,346,1,1,7.531999999999991
6,non-symbolic,4,116,20,14,True,685,0,1,7.03200000000001
6,non-symbolic,4,117,14,28,True,487,1,-1,8.031999999999991
6,non-symbolic,4,118,5,2,False,243,1,1,6.031999999999996
6,non-symbolic,4,119,5,3,False,540,1,1,7.533000000000005
6,non-symbolic,4,120,5,4,False,804,1,1,8.533000000000007
6,non-symbolic,4,121,7,10,True,715,1,-1,9.031999999999986
6,non-symbolic,4,122,14,20,True,675,1,-1,6.533000000000015
6,non-symbolic,4,123,28,79,True,259,1,-1,7.03400000000001
6,non-symbolic,4,124,28,79,True,466,1,-1,8.53400000000001
6,non-symbolic,4,125,20,40,True,460,1,-1,9.03300000000001
6,non-symbolic,4,126,5,4,False,441,1,1,6.532000000000024
6,non-symbolic,4,127,20,14,True,612,0,1,7.53200000000001
6,non-symbolic,4,128,5,10,True,753,1,-1,6.0339999999999865
6,non-symbolic,4,129,5,14,True,279,1,-1,8.033999999999978
6,non-symbolic,4,130,20,7,False,218,1,1,6.033000000000024
6,non-symbolic,4,131,28,29,True,778,1,-1,8.032999999999987
6,non-symbolic,4,132,10,5,False,487,1,1,7.533
6,non-symbolic,4,133,10,11,False,1086,0,-1,8.53300000000001
6,non-symbolic,4,134,7,8,False,772,0,-1,7.031999999999967
6,non-symbolic,4,135,10,14,True,767,1,-1,6.531999999999987
6,non-symbolic,4,136,7,14,True,664,1,-1,9.03400000000001
6,non-symbolic,4,137,20,57,True,265,1,-1,6.532000000000024
6,non-symbolic,4,138,28,14,False,721,1,1,9.033999999999995
6,non-symbolic,4,139,14,15,False,668,0,-1,7.0320000000001235
6,non-symbolic,4,140,7,10,True,846,1,-1,6.033000000000033
6,non-symbolic,4,141,10,5,False,537,1,1,8.031999999999963
6,non-symbolic,4,142,10,14,True,509,1,-1,8.53300000000001
6,non-symbolic,4,143,28,14,False,489,1,1,7.53300000000001
6,non-symbolic,4,144,7,4,False,442,1,1,6.033000000000104
6,non-symbolic,5,145,7,5,False,421,1,1,8.033
6,non-symbolic,5,146,10,5,False,468,1,1,9.032
6,non-symbolic,5,147,5,10,True,532,1,-1,6.034000000000006
6,non-symbolic,5,148,5,6,True,874,1,-1,7.032000000000002
6,non-symbolic,5,149,20,14,True,644,0,1,6.533000000000006
6,non-symbolic,5,150,28,79,True,313,1,-1,7.533000000000005
6,non-symbolic,5,151,28,20,False,654,1,1,8.534
6,non-symbolic,5,152,20,40,True,525,1,-1,8.531999999999991
6,non-symbolic,5,153,20,14,True,798,0,1,9.032999999999996
6,non-symbolic,5,154,7,14,True,479,1,-1,7.031999999999967
6,non-symbolic,5,155,20,57,True,458,1,-1,6.033000000000005
6,non-symbolic,5,156,5,14,True,571,1,-1,7.533000000000025
6,non-symbolic,5,157,10,4,False,139,1,1,8.033000000000005
6,non-symbolic,5,158,7,14,True,398,1,-1,6.533999999999977
6,non-symbolic,5,159,20,14,False,436,1,1,7.53200000000002
6,non-symbolic,5,160,10,20,True,397,1,-1,8.032999999999996
6,non-symbolic,5,161,10,14,False,772,0,-1,9.033000000000001
6,non-symbolic,5,162,14,7,False,530,1,1,8.532000000000028
6,non-symbolic,5,163,10,5,False,419,1,1,6.032
6,non-symbolic,5,164,14,7,False,378,1,1,7.032
6,non-symbolic,5,165,5,3,False,584,1,1,6.532000000000005
6,non-symbolic,5,166,10,14,True,763,1,-1,8.532999999999976
6,non-symbolic,5,167,14,20,True,635,1,-1,9.033000000000033
6,non-symbolic,5,168,20,7,False,336,1,1,8.03400000000001
6,non-symbolic,5,169,28,20,True,404,0,1,7.031999999999977
6,non-symbolic,5,170,28,10,False,455,1,1,7.531999999999996
6,non-symbolic,5,171,7,5,False,-1,-1,1,6.532
6,non-symbolic,5,172,5,3,False,1474,1,1,6.032000000000005
6,non-symbolic,5,173,5,4,False,345,1,1,7.033000000000021
6,non-symbolic,5,174,28,79,True,528,1,-1,6.53200000000001
6,non-symbolic,5,175,14,10,False,718,1,1,9.0330000000001
6,non-symbolic,5,176,7,5,False,435,1,1,6.03200000000001
6,non-symbolic,5,177,14,15,True,845,1,-1,8.531999999999982
6,non-symbolic,5,178,7,5,False,481,1,1,7.53300000000001
6,non-symbolic,5,179,14,15,False,1342,0,-1,8.032999999999982
6,non-symbolic,5,180,28,56,True,318,1,-1,8.032999999999888
6,non-symbolic,6,181,14,40,True,252,1,-1,7.031999999999997
6,non-symbolic,6,182,7,20,True,429,1,-1,7.533999999999998
6,non-symbolic,6,183,20,7,False,566,1,1,6.033000000000003
6,non-symbolic,6,184,20,7,False,247,1,1,9.033000000000003
6,non-symbolic,6,185,7,10,True,629,1,-1,8.533000000000005
6,non-symbolic,6,186,7,4,False,367,1,1,6.532999999999996
6,non-symbolic,6,187,14,7,False,1260,1,1,8.031999999999986
6,non-symbolic,6,188,14,10,False,475,1,1,7.533
6,non-symbolic,6,189,28,14,False,481,1,1,7.032
6,non-symbolic,6,190,5,2,False,386,1,1,9.033000000000001
6,non-symbolic,6,191,7,20,True,453,1,-1,8.532
6,non-symbolic,6,192,28,10,False,386,1,1,8.03400000000001
6,non-symbolic,6,193,10,20,True,196,1,-1,6.032
6,non-symbolic,6,194,7,5,False,517,1,1,6.533
6,non-symbolic,6,195,10,7,False,425,1,1,7.53300000000002
6,non-symbolic,6,196,10,14,True,838,1,-1,9.032999999999987
6,non-symbolic,6,197,5,14,True,458,1,-1,7.032999999999986
6,non-symbolic,6,198,5,3,False,535,1,1,6.031999999999982
6,non-symbolic,6,199,5,14,True,285,1,-1,8.03400000000002
6,non-symbolic,6,200,28,10,False,794,1,1,6.531999999999987
6,non-symbolic,6,201,20,28,True,237,1,-1,8.53300000000001
6,non-symbolic,6,202,10,28,True,654,1,-1,8.032999999999976
6,non-symbolic,6,203,10,7,False,1024,1,1,6.532000000000034
6,non-symbolic,6,204,14,13,True,1203,0,1,7.533
6,non-symbolic,6,205,14,13,False,407,1,1,6.03300000000001
6,non-symbolic,6,206,5,4,False,566,1,1,7.033000000000047
6,non-symbolic,6,207,28,40,True,600,1,-1,8.53200000000001
6,non-symbolic,6,208,20,40,True,738,1,-1,9.032999999999987
6,non-symbolic,6,209,28,79,True,768,1,-1,8.531999999999963
6,non-symbolic,6,210,20,28,True,1009,1,-1,6.531999999999967
6,non-symbolic,6,211,5,4,False,401,1,1,6.032999999999976
6,non-symbolic,6,212,10,9,False,1661,1,1,9.03400000000002
6,non-symbolic,6,213,14,40,True,242,1,-1,7.533
6,non-symbolic,6,214,28,56,True,471,1,-1,8.032000000000034
6,non-symbolic,6,215,7,20,True,154,1,-1,7.034000000000076
6,non-symbolic,6,216,20,14,False,423,1,1,6.532999999999976
7,non-symbolic,1,1,14,20,True,452,1,-1,7.032000000000004
7,non-symbolic,1,2,5,10,True,266,1,-1,9.032000000000002
7,non-symbolic,1,3,14,28,True,298,1,-1,8.033000000000001
7,non-symbolic,1,4,14,10,False,965,1,1,6.532000000000001
7,non-symbolic,1,5,14,40,True,288,1,-1,8.532000000000005
7,non-symbolic,1,6,5,3,False,814,1,1,7.532999999999992
7,non-symbolic,1,7,7,2,False,795,1,1,6.032
7,non-symbolic,1,8,20,40,True,480,1,-1,7.533
7,non-symbolic,1,9,10,20,True,385,1,-1,6.03400000000001
7,non-symbolic,1,10,20,57,True,275,1,-1,9.033000000000019
7,non-symbolic,1,11,7,8,True,585,1,-1,8.032
7,non-symbolic,1,12,20,7,False,964,1,1,6.531999999999972
7,non-symbolic,1,13,10,4,False,730,1,1,7.031999999999996
7,non-symbolic,1,14,10,4,False,420,1,1,8.533999999999986
7,non-symbolic,1,15,28,10,False,585,1,1,9.03100000000002
7,non-symbolic,1,16,28,79,True,277,1,-1,7.533
7,non-symbolic,1,17,28,40,True,710,1,-1,6.031999999999991
7,non-symbolic,1,18,7,4,False,570,1,1,8.532999999999959
7,non-symbolic,1,19,7,10,True,478,1,-1,7.032000000000015
7,non-symbolic,1,20,28,79,True,454,1,-1,8.031999999999991
7,non-symbolic,1,21,5,3,False,707,1,1,6.533000000000058
7,non-symbolic,1,22,10,28,True,197,1,-1,6.0330000000001
7,non-symbolic,1,23,20,14,True,1757,0,1,9.032000000000082
7,non-symbolic,1,24,10,5,False,116,1,1,7.53300000000001
7,non-symbolic,1,25,10,11,True,322,1,-1,8.033000000000058
7,non-symbolic,1,26,20,7,False,1093,1,1,7.032999999999887
7,non-symbolic,1,27,14,40,True,383,1,-1,8.533000000000019
7,non-symbolic,1,28,28,14,False,524,1,1,6.533999999999873
7,non-symbolic,1,29,5,6,True,868,1,-1,7.532000000000039
7,non-symbolic,1,30,5,3,False,617,1,1,6.033
7,non-symbolic,1,31,14,20,True,181,1,-1,9.033000000000024
7,non-symbolic,1,32,7,14,True,157,1,-1,8.032999999999967
7,non-symbolic,1,33,7,8,True,331,1,-1,7.032999999999991
7,non-symbolic,1,34,28,40,True,267,1,-1,6.533999999999944
7,non-symbolic,1,35,5,7,True,559,1,-1,8.53200000000001
7,non-symbolic,1,36,20,21,False,1084,0,-1,6.0329999999999195
7,non-symbolic,2,37,7,5,False,633,1,1,6.532
7,non-symbolic,2,38,20,57,True,122,1,-1,6.031999999999999
7,non-symbolic,2,39,28,14,False,455,1,1,7.033000000000001
7,non-symbolic,2,40,28,20,False,489,1,1,8.532999999999996
7,non-symbolic,2,41,20,21,True,1258,1,-1,7.533000000000003
7,non-symbolic,2,42,10,4,False,513,1,1,9.033000000000001
7,non-symbolic,2,43,14,10,True,943,0,1,8.032999999999996
7,non-symbolic,2,44,28,40,True,340,1,-1,7.032
7,non-symbolic,2,45,20,7,False,474,1,1,6.533
7,non-symbolic,2,46,7,10,True,428,1,-1,8.533000000000024
7,non-symbolic,2,47,14,7,False,548,1,1,6.033000000000005
7,non-symbolic,2,48,10,5,False,569,1,1,8.032000000000005
7,non-symbolic,2,49,20,21,True,660,1,-1,7.532999999999986
7,non-symbolic,2,50,14,28,True,380,1,-1,9.032999999999987
7,non-symbolic,2,51,7,4,False,427,1,1,7.531999999999978
7,non-symbolic,2,52,10,11,True,629,1,-1,9.031999999999996
7,non-symbolic,2,53,5,7,True,669,1,-1,8.034000000000063
7,non-symbolic,2,54,14,20,True,254,1,-1,7.033999999999977
7,non-symbolic,2,55,5,4,False,423,1,1,6.5319999999999965
7,non-symbolic,2,56,5,2,False,572,1,1,8.53299999999999
7,non-symbolic,2,57,28,56,True,188,1,-1,6.032000000000024
7,non-symbolic,2,58,20,10,False,343,1,1,6.53300000000001
7,non-symbolic,2,59,14,10,False,381,1,1,9.033000000000007
7,non-symbolic,2,60,10,7,False,1081,1,1,6.032000000000034
7,non-symbolic,2,61,14,40,True,149,1,-1,7.532
7,non-symbolic,2,62,5,7,True,604,1,-1,7.032000000000011
7,non-symbolic,2,63,10,11,True,1078,1,-1,8.533000000000001
7,non-symbolic,2,64,5,6,True,929,1,-1,8.03300000000001
7,non-symbolic,2,65,5,10,True,269,1,-1,7.032000000000001
7,non-symbolic,2,66,28,56,True,228,1,-1,8.03300000000003
7,non-symbolic,2,67,7,2,False,562,1,1,9.032
7,non-symbolic,2,68,7,5,False,597,1,1,8.532000000000034
7,non-symbolic,2,69,20,10,True,381,0,1,6.533000000000024
7,non-symbolic,2,70,10,5,False,438,1,1,7.531999999999977
7,non-symbolic,2,71,7,10,True,455,1,-1,6.031999999999987
7,non-symbolic,2,72,28,29,True,329,1,-1,8.532999999999953
7,non-symbolic,3,73,5,10,True,120,1,-1,7.032
7,non-symbolic,3,74,7,14,True,106,1,-1,6.033000000000002
7,non-symbolic,3,75,14,10,False,1380,1,1,8.033000000000001
7,non-symbolic,3,76,10,7,False,1174,1,1,9.033000000000005
7,non-symbolic,3,77,28,10,False,446,1,1,8.532999999999996
7,non-symbolic,3,78,7,20,True,222,1,-1,7.532
7,non-symbolic,3,79,5,10,False,-1,-1,-1,6.532000000000002
7,non-symbolic,3,80,20,14,False,-1,-1,1,6.032999999999996
7,non-symbolic,3,81,14,20,True,644,1,-1,9.033000000000005
7,non-symbolic,3,82,14,7,True,543,0,1,8.03300000000001
7,non-symbolic,3,83,20,28,False,508,0,-1,6.532999999999976
7,non-symbolic,3,84,20,21,True,798,1,-1,8.531999999999949
7,non-symbolic,3,85,20,10,False,491,1,1,7.532999999999972
7,non-symbolic,3,86,28,56,True,358,1,-1,7.032999999999963
7,non-symbolic,3,87,10,20,True,281,1,-1,9.032
7,non-symbolic,3,88,7,14,True,227,1,-1,6.532000000000052
7,non-symbolic,3,89,10,14,True,320,1,-1,7.033
7,non-symbolic,3,90,5,2,False,578,1,1,8.532000000000044
7,non-symbolic,3,91,7,2,False,471,1,1,6.033999999999967
7,non-symbolic,3,92,10,5,False,1054,1,1,8.033000000000024
7,non-symbolic,3,93,20,7,False,846,1,1,7.532999999999986
7,non-symbolic,3,94,14,5,False,370,1,1,7.533000000000043
7,non-symbolic,3,95,14,7,False,406,1,1,8.532000000000025
7,non-symbolic,3,96,20,10,True,1390,0,1,6.5329999999999675
7,non-symbolic,3,97,5,10,True,285,1,-1,7.032000000000011
7,non-symbolic,3,98,10,14,True,375,1,-1,6.03300000000001
7,non-symbolic,3,99,28,56,True,402,1,-1,9.03300000000001
7,non-symbolic,3,100,28,10,False,768,1,1,8.031999999999954
7,non-symbolic,3,101,7,8,True,784,1,-1,7.032
7,non-symbolic,3,102,5,6,True,1215,1,-1,6.533000000000021
7,non-symbolic,3,103,14,15,True,925,1,-1,8.531999999999963
7,non-symbolic,3,104,5,6,True,515,1,-1,8.031999999999988
7,non-symbolic,3,105,7,2,False,852,1,1,6.033
7,non-symbolic,3,106,28,40,True,238,1,-1,7.531999999999977
7,non-symbolic,3,107,10,28,True,378,1,-1,9.032000000000105
7,non-symbolic,3,108,28,79,True,334,1,-1,7.53300000000001
7,non-symbolic,4,109,28,79,True,124,1,-1,7.033
7,non-symbolic,4,110,10,28,True,270,1,-1,7.532
7,non-symbolic,4,111,14,40,True,44,1,-1,9.032999999999996
7,non-symbolic,4,112,28,27,True,728,0,1,8.032000000000005
7,non-symbolic,4,113,14,7,False,593,1,1,6.53200000000001
7,non-symbolic,4,114,7,5,False,1092,1,1,8.534000000000011
7,non-symbolic,4,115,7,10,True,434,1,-1,6.033
7,non-symbolic,4,116,14,10,False,505,1,1,9.032
7,non-symbolic,4,117,7,10,True,732,1,-1,8.53200000000001
7,non-symbolic,4,118,7,6,False,1589,1,1,6.533
7,non-symbolic,4,119,7,10,True,443,1,-1,7.031999999999996
7,non-symbolic,4,120,14,20,True,190,1,-1,7.533000000000005
7,non-symbolic,4,121,5,7,True,1741,1,-1,8.032000000000005
7,non-symbolic,4,122,7,2,False,490,1,1,6.032000000000024
7,non-symbolic,4,123,28,14,False,1185,1,1,6.533000000000005
7,non-symbolic,4,124,20,10,False,295,1,1,8.532999999999976
7,non-symbolic,4,125,20,57,True,152,1,-1,7.0330000000000386
7,non-symbolic,4,126,14,7,False,567,1,1,8.033999999999981
7,non-symbolic,4,127,28,40,False,523,0,-1,6.033000000000081
7,non-symbolic,4,128,20,40,True,153,1,-1,9.03400000000001
7,non-symbolic,4,129,10,9,True,1168,0,1,7.53199999999992
7,non-symbolic,4,130,5,4,False,755,1,1,6.531999999999906
7,non-symbolic,4,131,5,2,False,505,1,1,8.532999999999992
7,non-symbolic,4,132,28,40,True,164,1,-1,7.034000000000034
7,non-symbolic,4,133,20,57,True,280,1,-1,9.031999999999968
7,non-symbolic,4,134,20,19,True,364,0,1,6.0320000000000435
7,non-symbolic,4,135,10,20,True,111,1,-1,7.532000000000081
7,non-symbolic,4,136,5,2,False,501,1,1,8.031999999999888
7,non-symbolic,4,137,5,2,False,391,1,1,8.532999999999788
7,non-symbolic,4,138,10,28,True,22,1,-1,7.032000000000105
7,non-symbolic,4,139,5,7,True,540,1,-1,9.032000000000002
7,non-symbolic,4,140,20,10,False,562,1,1,6.531999999999943
7,non-symbolic,4,141,10,4,False,334,1,1,8.032000000000016
7,non-symbolic,4,142,14,28,True,222,1,-1,7.53200000000001
7,non-symbolic,4,143,10,7,False,703,1,1,6.031999999999967
7,non-symbolic,4,144,28,14,False,327,1,1,7.53200000000001
7,non-symbolic,5,145,10,11,True,594,1,-1,8.033000000000001
7,non-symbolic,5,146,14,5,False,326,1,1,7.533000000000002
7,non-symbolic,5,147,28,29,False,1321,0,-1,6.033000000000005
7,non-symbolic,5,148,5,4,False,1035,1,1,9.032999999999994
7,non-symbolic,5,149,7,8,True,315,1,-1,6.533000000000005
7,non-symbolic,5,150,28,14,False,979,1,1,8.533999999999995
7,non-symbolic,5,151,5,14,True,366,1,-1,7.031999999999992
7,non-symbolic,5,152,7,4,False,465,1,1,6.032
7,non-symbolic,5,153,7,5,False,1589,1,1,8.033000000000005
7,non-symbolic,5,154,14,5,False,296,1,1,7.032999999999963
7,non-symbolic,5,155,5,3,False,214,1,1,6.532000000000039
7,non-symbolic,5,156,10,11,True,1603,1,-1,9.032
7,non-symbolic,5,157,28,14,False,548,1,1,8.532999999999948
7,non-symbolic,5,158,10,20,True,501,1,-1,7.531999999999967
7,non-symbolic,5,159,10,11,True,562,1,-1,6.533
7,non-symbolic,5,160,28,20,True,530,0,1,7.032999999999982
7,non-symbolic,5,161,20,7,False,1402,1,1,7.532999999999983
7,non-symbolic,5,162,20,40,True,177,1,-1,8.532
7,non-symbolic,5,163,20,10,False,412,1,1,6.031999999999977
7,non-symbolic,5,164,7,10,True,439,1,-1,9.031999999999957
7,non-symbolic,5,165,5,10,True,311,1,-1,8.033000000000035
7,non-symbolic,5,166,14,5,False,518,1,1,8.032000000000034
7,non-symbolic,5,167,5,4,False,675,1,1,7.532000000000029
7,non-symbolic,5,168,14,20,True,128,1,-1,8.531999999999991
7,non-symbolic,5,169,7,2,False,542,1,1,9.032999999999987
7,non-symbolic,5,170,10,14,True,265,1,-1,6.031999999999991
7,non-symbolic,5,171,5,7,True,1111,1,-1,7.032000000000011
7,non-symbolic,5,172,20,57,True,225,1,-1,6.53200000000001
7,non-symbolic,5,173,10,7,False,491,1,1,7.533999999999953
7,non-symbolic,5,174,28,40,True,279,1,-1,6.03200000000001
7,non-symbolic,5,175,20,7,False,316,1,1,8.032999999999976
7,non-symbolic,5,176,14,28,True,241,1,-1,6.532
7,non-symbolic,5,177,28,20,False,914,1,1,9.033000000000019
7,non-symbolic,5,178,20,21,True,673,1,-1,8.533999999999986
7,non-symbolic,5,179,14,40,True,53,1,-1,7.034000000000053
7,non-symbolic,5,180,7,8,True,271,1,-1,6.53200000000002
7,non-symbolic,6,181,5,4,False,460,1,1,6.531999999999999
7,non-symbolic,6,182,5,14,True,133,1,-1,8.031999999999998
7,non-symbolic,6,183,28,10,False,1223,1,1,9.033000000000001
7,non-symbolic,6,184,28,79,True,25,1,-1,7.532999999999996
7,non-symbolic,6,185,28,29,False,452,0,-1,6.0320000000000125
7,non-symbolic,6,186,10,20,True,925,1,-1,8.533999999999986
7,non-symbolic,6,187,20,40,True,634,1,-1,7.032000000000015
7,non-symbolic,6,188,28,56,True,133,1,-1,8.532
7,non-symbolic,6,189,14,5,False,369,1,1,6.032999999999996
7,non-symbolic,6,190,14,5,False,338,1,1,7.032000000000024
7,non-symbolic,6,191,10,4,False,322,1,1,7.534000000000001
7,non-symbolic,6,192,7,14,True,512,1,-1,6.533
7,non-symbolic,6,193,7,20,True,74,1,-1,8.032000000000014
7,non-symbolic,6,194,20,14,False,305,1,1,9.03300000000001
7,non-symbolic,6,195,7,4,False,484,1,1,8.031999999999996
7,non-symbolic,6,196,10,28,True,198,1,-1,6.531999999999981
7,non-symbolic,6,197,20,28,True,708,1,-1,9.034000000000015
7,non-symbolic,6,198,5,2,False,437,1,1,7.533000000000011
7,non-symbolic,6,199,7,14,True,1345,1,-1,7.03400000000001
7,non-symbolic,6,200,10,11,False,-1,-1,-1,8.533000000000001
7,non-symbolic,6,201,5,4,False,531,1,1,6.031999999999977
7,non-symbolic,6,202,28,20,True,1408,0,1,9.033000000000001
7,non-symbolic,6,203,7,2,False,748,1,1,8.53299999999999
7,non-symbolic,6,204,14,20,True,223,1,-1,6.031999999999967
7,non-symbolic,6,205,10,5,False,286,1,1,6.532999999999991
7,non-symbolic,6,206,7,14,True,90,1,-1,7.531999999999988
7,non-symbolic,6,207,20,7,False,199,1,1,7.03200000000001
7,non-symbolic,6,208,28,10,False,414,1,1,8.032
7,non-symbolic,6,209,14,15,True,952,1,-1,8.532
7,non-symbolic,6,210,20,21,False,968,0,-1,6.033000000000033
7,non-symbolic,6,211,5,14,True,28,1,-1,8.031999999999977
7,non-symbolic,6,212,14,28,True,167,1,-1,6.53200000000002
7,non-symbolic,6,213,10,5,False,735,1,1,9.032
7,non-symbolic,6,214,20,21,False,895,0,-1,7.533000000000033
7,non-symbolic,6,215,5,4,False,1334,1,1,7.032000000000039
7,non-symbolic,6,216,14,10,True,1198,0,1,7.033000000000033
8,non-symbolic,1,1,14,28,True,357,1,-1,6.033
8,non-symbolic,1,2,10,7,False,377,1,1,8.033000000000001
8,non-symbolic,1,3,7,10,True,575,1,-1,7.532999999999992
8,non-symbolic,1,4,14,7,False,391,1,1,6.533
8,non-symbolic,1,5,20,57,True,269,1,-1,8.531999999999996
8,non-symbolic,1,6,10,7,False,392,1,1,9.032000000000014
8,non-symbolic,1,7,14,7,False,452,1,1,7.032999999999982
8,non-symbolic,1,8,5,4,False,416,1,1,6.033000000000001
8,non-symbolic,1,9,7,2,False,419,1,1,7.532999999999991
8,non-symbolic,1,10,10,20,True,282,1,-1,6.533
8,non-symbolic,1,11,7,20,True,331,1,-1,8.532000000000014
8,non-symbolic,1,12,14,5,False,331,1,1,9.033000000000001
8,non-symbolic,1,13,5,14,True,343,1,-1,8.032000000000005
8,non-symbolic,1,14,28,27,False,848,1,1,7.032999999999996
8,non-symbolic,1,15,10,4,False,287,1,1,9.032
8,non-symbolic,1,16,10,5,False,318,1,1,8.032000000000014
8,non-symbolic,1,17,28,40,True,348,1,-1,8.53300000000001
8,non-symbolic,1,18,20,14,False,274,1,1,7.534000000000001
8,non-symbolic,1,19,7,6,True,572,0,1,6.532000000000002
8,non-symbolic,1,20,7,14,True,373,1,-1,6.033000000000015
8,non-symbolic,1,21,20,57,True,288,1,-1,7.032
8,non-symbolic,1,22,28,14,False,369,1,1,7.533000000000021
8,non-symbolic,1,23,28,14,False,301,1,1,9.031999999999968
8,non-symbolic,1,24,28,20,False,341,1,1,8.53200000000001
8,non-symbolic,1,25,14,10,True,700,0,1,6.533000000000024
8,non-symbolic,1,26,10,5,False,652,1,1,7.032000000000024
8,non-symbolic,1,27,5,2,False,525,1,1,6.032000000000005
8,non-symbolic,1,28,20,14,False,590,1,1,8.032000000000034
8,non-symbolic,1,29,7,20,True,176,1,-1,8.53200000000001
8,non-symbolic,1,30,5,4,False,554,1,1,7.032000000000002
8,non-symbolic,1,31,5,14,True,285,1,-1,8.032000000000039
8,non-symbolic,1,32,28,20,False,843,1,1,9.032
8,non-symbolic,1,33,20,19,True,495,0,1,6.5329999999998725
8,non-symbolic,1,34,14,40,True,135,1,-1,6.03199999999992
8,non-symbolic,1,35,20,14,True,826,0,1,7.53300000000009
8,non-symbolic,1,36,5,3,False,396,1,1,6.532000000000062
8,non-symbolic,2,37,20,10,False,179,1,1,6.533000000000006
8,non-symbolic,2,38,10,11,True,387,1,-1,6.033000000000001
8,non-symbolic,2,39,5,4,False,564,1,1,8.532000000000005
8,non-symbolic,2,40,7,4,False,726,1,1,9.031999999999993
8,non-symbolic,2,41,10,14,True,554,1,-1,7.532
8,non-symbolic,2,42,10,4,False,375,1,1,8.032000000000005
8,non-symbolic,2,43,28,79,True,242,1,-1,7.032000000000001
8,non-symbolic,2,44,20,28,False,666,0,-1,7.033000000000005
8,non-symbolic,2,45,10,28,True,276,1,-1,7.532999999999991
8,non-symbolic,2,46,20,10,False,372,1,1,6.033
8,non-symbolic,2,47,7,14,True,335,1,-1,8.532999999999976
8,non-symbolic,2,48,7,14,True,98,1,-1,8.032000000000062
8,non-symbolic,2,49,7,4,False,394,1,1,9.031999999999977
8,non-symbolic,2,50,14,20,True,466,1,-1,6.531999999999981
8,non-symbolic,2,51,10,28,True,271,1,-1,6.033000000000024
8,non-symbolic,2,52,10,5,False,326,1,1,8.532999999999962
8,non-symbolic,2,53,28,14,False,350,1,1,9.033000000000005
8,non-symbolic,2,54,7,14,True,282,1,-1,8.031999999999991
8,non-symbolic,2,55,5,3,False,527,1,1,6.532999999999996
8,non-symbolic,2,56,20,21,True,330,1,-1,7.034000000000019
8,non-symbolic,2,57,14,5,False,248,1,1,7.531999999999991
8,non-symbolic,2,58,5,7,True,663,1,-1,8.531999999999988
8,non-symbolic,2,59,28,56,True,315,1,-1,9.03200000000001
8,non-symbolic,2,60,14,40,True,285,1,-1,7.532000000000024
8,non-symbolic,2,61,14,15,True,660,1,-1,7.03300000000001
8,non-symbolic,2,62,5,2,False,312,1,1,8.033000000000015
8,non-symbolic,2,63,5,3,False,349,1,1,6.533000000000024
8,non-symbolic,2,64,28,56,True,174,1,-1,6.032999999999986
8,non-symbolic,2,65,20,28,True,840,1,-1,6.032000000000002
8,non-symbolic,2,66,28,14,False,360,1,1,7.032000000000024
8,non-symbolic,2,67,14,40,True,181,1,-1,9.033000000000024
8,non-symbolic,2,68,5,2,False,336,1,1,7.531999999999991
8,non-symbolic,2,69,7,2,False,259,1,1,8.032000000000105
8,non-symbolic,2,70,20,21,False,282,0,-1,6.534000000000034
8,non-symbolic,2,71,14,10,False,442,1,1,8.532000000000043
8,non-symbolic,2,72,28,14,False,310,1,1,6.032000000000029
8,non-symbolic,3,73,28,40,True,286,1,-1,6.032000000000001
8,non-symbolic,3,74,20,10,False,376,1,1,8.533000000000001
8,non-symbolic,3,75,7,2,False,472,1,1,9.031999999999991
8,non-symbolic,3,76,5,2,False,356,1,1,7.531999999999998
8,non-symbolic,3,77,5,7,True,252,1,-1,8.03199999999999
8,non-symbolic,3,78,7,4,False,286,1,1,6.533
8,non-symbolic,3,79,7,10,True,675,1,-1,7.03300000000001
8,non-symbolic,3,80,14,10,False,451,1,1,6.032999999999982
8,non-symbolic,3,81,5,6,False,382,0,-1,8.033000000000019
8,non-symbolic,3,82,28,10,False,241,1,1,8.533999999999972
8,non-symbolic,3,83,10,7,True,796,0,1,6.532000000000014
8,non-symbolic,3,84,10,14,True,302,1,-1,9.03300000000001
8,non-symbolic,3,85,14,10,False,291,1,1,7.53200000000002
8,non-symbolic,3,86,7,14,True,226,1,-1,7.032999999999982
8,non-symbolic,3,87,5,4,False,460,1,1,6.531999999999988
8,non-symbolic,3,88,20,28,True,628,1,-1,8.031999999999986
8,non-symbolic,3,89,20,21,False,736,0,-1,9.033000000000001
8,non-symbolic,3,90,14,10,False,438,1,1,7.032000000000014
8,non-symbolic,3,91,28,10,False,581,1,1,8.532000000000043
8,non-symbolic,3,92,7,8,True,747,1,-1,6.031999999999987
8,non-symbolic,3,93,10,14,True,299,1,-1,7.531999999999991
8,non-symbolic,3,94,20,57,True,308,1,-1,7.034000000000043
8,non-symbolic,3,95,10,20,True,260,1,-1,8.031999999999977
8,non-symbolic,3,96,10,28,True,180,1,-1,8.532000000000014
8,non-symbolic,3,97,28,14,False,211,1,1,7.53200000000001
8,non-symbolic,3,98,20,10,False,294,1,1,6.533000000000033
8,non-symbolic,3,99,5,14,True,184,1,-1,6.031999999999967
8,non-symbolic,3,100,14,5,False,141,1,1,9.032999999999987
8,non-symbolic,3,101,28,29,True,81,1,-1,8.033000000000001
8,non-symbolic,3,102,20,7,False,99,1,1,8.53200000000002
8,non-symbolic,3,103,5,14,True,181,1,-1,9.031999999999965
8,non-symbolic,3,104,28,79,True,443,1,-1,6.033000000000043
8,non-symbolic,3,105,14,10,False,162,1,1,7.531999999999977
8,non-symbolic,3,106,10,5,False,74,1,1,6.53300000000009
8,non-symbolic,3,107,14,5,False,1742,1,1,7.0329999999999195
8,non-symbolic,3,108,7,8,True,544,1,-1,9.032000000000071
8,non-symbolic,4,109,7,5,False,576,1,1,6.532999999999998
8,non-symbolic,4,110,28,10,False,231,1,1,8.032999999999996
8,non-symbolic,4,111,7,4,False,248,1,1,7.032
8,non-symbolic,4,112,14,5,False,248,1,1,8.533000000000005
8,non-symbolic,4,113,7,4,False,80,1,1,6.032
8,non-symbolic,4,114,20,57,True,563,1,-1,9.031999999999996
8,non-symbolic,4,115,20,14,True,781,0,1,7.531999999999988
8,non-symbolic,4,116,14,10,False,287,1,1,6.531999999999996
8,non-symbolic,4,117,5,10,True,156,1,-1,8.53200000000001
8,non-symbolic,4,118,28,10,False,159,1,1,7.033000000000019
8,non-symbolic,4,119,28,29,True,427,1,-1,9.032000000000005
8,non-symbolic,4,120,20,40,True,236,1,-1,7.53300000000001
8,non-symbolic,4,121,7,14,False,29,0,-1,8.031999999999996
8,non-symbolic,4,122,5,2,False,268,1,1,6.033000000000015
8,non-symbolic,4,123,7,14,True,290,1,-1,6.531999999999991
8,non-symbolic,4,124,28,56,True,194,1,-1,7.531999999999991
8,non-symbolic,4,125,10,7,False,321,1,1,8.032999999999982
8,non-symbolic,4,126,7,4,False,272,1,1,6.033000000000043
8,non-symbolic,4,127,28,14,False,353,1,1,9.031999999999986
8,non-symbolic,4,128,14,5,False,232,1,1,7.031999999999987
8,non-symbolic,4,129,20,40,True,235,1,-1,8.53300000000001
8,non-symbolic,4,130,5,3,False,370,1,1,7.032999999999977
8,non-symbolic,4,131,14,20,True,281,1,-1,8.033000000000019
8,non-symbolic,4,132,10,4,False,280,1,1,6.033000000000025
8,non-symbolic,4,133,14,28,True,89,1,-1,9.032
8,non-symbolic,4,134,10,20,True,242,1,-1,8.533000000000024
8,non-symbolic,4,135,5,6,True,979,1,-1,7.531999999999981
8,non-symbolic,4,136,5,7,True,319,1,-1,6.532999999999963
8,non-symbolic,4,137,5,14,True,306,1,-1,8.532999999999959
8,non-symbolic,4,138,10,5,False,70,1,1,6.03400000000001
8,non-symbolic,4,139,10,28,True,97,1,-1,7.532000000000024
8,non-symbolic,4,140,14,5,False,656,1,1,8.033000000000033
8,non-symbolic,4,141,20,57,True,365,1,-1,7.032
8,non-symbolic,4,142,10,4,False,729,1,1,9.034000000000024
8,non-symbolic,4,143,28,79,True,390,1,-1,6.533999999999972
8,non-symbolic,4,144,20,10,False,362,1,1,8.031999999999897
8,non-symbolic,5,145,10,9,True,423,0,1,7.033000000000002
8,non-symbolic,5,146,10,5,False,289,1,1,8.033000000000001
8,non-symbolic,5,147,14,5,False,316,1,1,8.531999999999996
8,non-symbolic,5,148,20,57,True,289,1,-1,9.031999999999998
8,non-symbolic,5,149,28,27,True,460,0,1,7.533000000000005
8,non-symbolic,5,150,10,20,True,422,1,-1,6.0319999999999965
8,non-symbolic,5,151,7,10,True,290,1,-1,6.532999999999991
8,non-symbolic,5,152,28,79,True,298,1,-1,7.532000000000001
8,non-symbolic,5,153,7,2,False,681,1,1,8.532000000000002
8,non-symbolic,5,154,14,28,False,1137,0,-1,8.032999999999982
8,non-symbolic,5,155,7,20,True,321,1,-1,6.531999999999978
8,non-symbolic,5,156,14,13,False,319,1,1,7.032999999999991
8,non-symbolic,5,157,10,9,False,439,1,1,6.032000000000024
8,non-symbolic,5,158,28,56,True,292,1,-1,9.033999999999992
8,non-symbolic,5,159,7,10,True,790,1,-1,6.532
8,non-symbolic,5,160,20,10,False,704,1,1,6.031999999999996
8,non-symbolic,5,161,5,4,False,430,1,1,7.033000000000007
8,non-symbolic,5,162,20,19,False,699,1,1,9.033999999999986
8,non-symbolic,5,163,5,2,False,295,1,1,7.532000000000014
8,non-symbolic,5,164,14,5,False,308,1,1,8.032000000000034
8,non-symbolic,5,165,20,28,True,300,1,-1,8.531999999999991
8,non-symbolic,5,166,5,10,True,788,1,-1,8.532000000000005
8,non-symbolic,5,167,14,5,False,310,1,1,8.032000000000034
8,non-symbolic,5,168,10,20,True,315,1,-1,6.032999999999986
8,non-symbolic,5,169,20,7,False,639,1,1,7.032999999999996
8,non-symbolic,5,170,5,3,False,479,1,1,9.032
8,non-symbolic,5,171,14,10,False,394,1,1,7.533
8,non-symbolic,5,172,5,4,False,394,1,1,6.531999999999944
8,non-symbolic,5,173,5,3,False,295,1,1,6.531999999999977
8,non-symbolic,5,174,10,7,False,299,1,1,7.532000000000014
8,non-symbolic,5,175,28,40,True,707,1,-1,9.031999999999957
8,non-symbolic,5,176,7,20,True,300,1,-1,6.0329999999999675
8,non-symbolic,5,177,7,10,True,364,1,-1,8.03200000000009
8,non-symbolic,5,178,28,79,True,597,1,-1,7.03400000000001
8,non-symbolic,5,179,28,40,True,493,1,-1,8.534000000000034
8,non-symbolic,5,180,20,28,True,442,1,-1,8.531999999999977
8,non-symbolic,6,181,7,4,False,276,1,1,6.032000000000001
8,non-symbolic,6,182,20,40,True,497,1,-1,7.532
8,non-symbolic,6,183,28,10,False,221,1,1,8.033000000000001
8,non-symbolic,6,184,7,4,False,432,1,1,7.032999999999999
8,non-symbolic,6,185,7,4,False,396,1,1,8.534
8,non-symbolic,6,186,14,20,True,451,1,-1,9.033000000000005
8,non-symbolic,6,187,20,57,True,539,1,-1,6.53300000000001
8,non-symbolic,6,188,20,28,True,584,1,-1,6.033999999999996
8,non-symbolic,6,189,28,29,True,620,1,-1,8.532
8,non-symbolic,6,190,14,20,True,546,1,-1,9.032000000000005
8,non-symbolic,6,191,5,10,True,383,1,-1,8.031999999999993
8,non-symbolic,6,192,14,15,False,561,0,-1,7.531999999999981
8,non-symbolic,6,193,5,2,False,365,1,1,6.533000000000011
8,non-symbolic,6,194,20,21,True,609,1,-1,7.032000000000005
8,non-symbolic,6,195,5,2,False,351,1,1,7.532999999999982
8,non-symbolic,6,196,20,40,True,388,1,-1,7.032000000000005
8,non-symbolic,6,197,14,40,True,251,1,-1,8.03299999999999
8,non-symbolic,6,198,28,29,True,377,1,-1,9.032999999999982
8,non-symbolic,6,199,10,14,True,420,1,-1,6.531999999999981
8,non-symbolic,6,200,5,7,True,931,1,-1,6.031999999999954
8,non-symbolic,6,201,10,11,False,706,0,-1,8.532999999999987
8,non-symbolic,6,202,10,7,False,699,1,1,7.031999999999991
8,non-symbolic,6,203,28,40,True,279,1,-1,8.531999999999977
8,non-symbolic,6,204,28,40,True,218,1,-1,9.03200000000001
8,non-symbolic,6,205,7,4,False,368,1,1,7.532999999999958
8,non-symbolic,6,206,14,15,True,479,1,-1,6.0320000000000205
8,non-symbolic,6,207,28,20,False,762,1,1,6.533
8,non-symbolic,6,208,5,6,False,573,0,-1,8.032000000000021
8,non-symbolic,6,209,10,20,True,318,1,-1,9.032000000000014
8,non-symbolic,6,210,10,20,True,520,1,-1,8.031999999999954
8,non-symbolic,6,211,10,7,False,387,1,1,7.0320000000000435
8,non-symbolic,6,212,7,10,True,699,1,-1,6.033000000000044
8,non-symbolic,6,213,5,10,True,405,1,-1,6.532000000000034
8,non-symbolic,6,214,20,14,False,370,1,1,7.532999999999997
8,non-symbolic,6,215,14,40,True,466,1,-1,8.533999999999997
8,non-symbolic,6,216,7,20,True,365,1,-1,6.030999999999991
9,non-symbolic,1,1,20,21,True,504,1,-1,8.53300000000001
9,non-symbolic,1,2,10,11,False,741,0,-1,8.032000000000004
9,non-symbolic,1,3,7,5,False,435,1,1,9.032000000000002
9,non-symbolic,1,4,10,11,True,506,1,-1,6.533
9,non-symbolic,1,5,28,14,False,309,1,1,7.032999999999982
9,non-symbolic,1,6,7,8,False,467,0,-1,6.0319999999999965
9,non-symbolic,1,7,10,20,True,299,1,-1,7.53300000000001
9,non-symbolic,1,8,14,40,True,421,1,-1,6.032000000000005
9,non-symbolic,1,9,20,40,True,385,1,-1,8.532
9,non-symbolic,1,10,28,14,False,379,1,1,6.533000000000019
9,non-symbolic,1,11,20,14,False,534,1,1,9.032
9,non-symbolic,1,12,20,21,False,506,0,-1,7.533
9,non-symbolic,1,13,28,10,False,348,1,1,7.032999999999996
9,non-symbolic,1,14,7,8,False,1271,0,-1,8.032999999999982
9,non-symbolic,1,15,5,4,False,660,1,1,6.532999999999997
9,non-symbolic,1,16,14,7,False,288,1,1,8.03200000000001
9,non-symbolic,1,17,5,2,False,557,1,1,7.531999999999982
9,non-symbolic,1,18,14,15,True,450,1,-1,7.032999999999986
9,non-symbolic,1,19,20,21,True,710,1,-1,9.032999999999967
9,non-symbolic,1,20,14,40,True,295,1,-1,6.032000000000034
9,non-symbolic,1,21,14,5,False,282,1,1,8.532000000000057
9,non-symbolic,1,22,14,7,False,871,1,1,7.032999999999977
9,non-symbolic,1,23,5,3,False,281,1,1,7.533000000000011
9,non-symbolic,1,24,7,10,True,427,1,-1,8.033000000000039
9,non-symbolic,1,25,7,8,True,441,1,-1,8.532999999999944
9,non-symbolic,1,26,10,28,True,428,1,-1,6.031999999999958
9,non-symbolic,1,27,7,5,False,359,1,1,6.53300000000009
9,non-symbolic,1,28,20,21,False,1231,0,-1,9.033000000000019
9,non-symbolic,1,29,28,40,False,-1,-1,-1,9.03299999999993
9,non-symbolic,1,30,10,7,False,416,1,1,8.033000000000078
9,non-symbolic,1,31,10,28,True,813,1,-1,7.533000000000114
9,non-symbolic,1,32,28,29,False,1327,0,-1,8.533000000000015
9,non-symbolic,1,33,5,6,True,1358,1,-1,7.033000000000034
9,non-symbolic,1,34,28,56,True,313,1,-1,6.033000000000057
9,non-symbolic,1,35,5,2,False,553,1,1,6.531999999999988
9,non-symbolic,1,36,5,2,False,-1,-1,1,8.033000000000039
9,non-symbolic,2,37,5,4,False,310,1,1,8.033000000000001
9,non-symbolic,2,38,20,21,False,293,0,-1,6.031999999999996
9,non-symbolic,2,39,20,28,True,728,1,-1,7.532000000000002
9,non-symbolic,2,40,14,28,True,561,1,-1,9.031999999999996
9,non-symbolic,2,41,7,10,True,415,1,-1,7.033
