subject,run,trial_nr,cueonset1,cueoffset1,cueonset2,cueoffset2,stimonset1,stimoffset1,isistimonset,isistimoffset,stimonset2,stimoffset2,responseonset1,responseonset2,responseoffset,cuediff1,cuediff2,stimdiff1,isistimdiff,stimdiff2,rt,rt2,responsecueduration_final,remainduration,responsediff1,responsediff2,durationdiff,trialaccumulation,trialduration,accuracy,prob_value,diffval,rad,correct,leftright,pressedkey,n1,n2,choice
1,1,1,35070,36600,36600,37630,37630,38243,38276,46276,46276,46903,46936,46971,50047,1530,1030,613,8000,627,775,0,600,1625,3111,3076,1025,15.01429881,15.01429881,1,10,-3,190,-1,-1,49,7,10,1.0
1,1,2,50095,51614,51614,52628,52628,53248,53280,61780,61780,62380,62412,62446,65562,1519,1014,620,8500,600,892,0,600,1555,3150,3116,955,30.48175817,15.46745936,0,14,-9,170,-1,1,51,5,14,2.0
1,1,3,65565,67087,67087,68095,68095,68719,68752,75252,75252,75852,75885,75918,79003,1522,1008,624,6500,600,611,0,600,1835,3118,3085,1235,43.92283997,13.4410818,1,14,-7,210,-1,-1,49,7,14,1.0
1,1,4,79005,80523,80523,81527,81527,82147,82180,89180,89180,89810,89842,89876,92943,1518,1004,620,7000,630,660,0,600,1768,3101,3067,1168,57.86350214,13.94066217,1,10,-3,210,-1,-1,49,7,10,1.0
1,1,5,92946,94467,94467,95473,95473,96096,96129,105129,105129,105754,105786,105820,108904,1521,1006,623,9000,625,830,0,600,1595,3118,3084,995,73.82328835,15.95978621,1,10,-5,150,-1,-1,49,5,10,1.0
1,1,6,108906,110428,110428,111437,111437,112043,112075,119575,119575,120206,120238,120272,123336,1522,1009,606,7500,631,687,0,600,1745,3098,3064,1145,88.25560596,14.43231761,1,10,18,150,1,1,51,28,10,2.0
1,1,7,123338,124860,124860,125864,125864,126466,126499,132499,132499,133099,133133,133166,136302,1522,1004,602,6000,600,1274,0,600,1198,3169,3136,598,101.2218851,12.96627912,0,20,8,150,1,-1,49,28,20,1.0
1,1,8,136304,137827,137827,138829,138829,139449,139482,145482,145482,146099,146132,146166,149255,1523,1002,620,6000,617,576,0,600,1862,3123,3089,1262,114.1746905,12.95280541,1,5,2,200,1,1,51,7,5,2.0
1,1,9,149257,150777,150777,151785,151785,152389,152422,161422,161422,162052,162085,162118,165194,1520,1008,604,9000,630,890,0,600,1548,3109,3076,948,130.1143347,15.93964421,0,19,1,150,1,-1,49,20,19,1.0
1,1,10,165196,166727,166727,167736,167736,168336,168368,176868,176868,177483,177516,177550,180658,1531,1009,600,8500,615,472,0,600,1973,3142,3108,1373,145.5784792,15.4641445,1,5,5,190,1,1,51,10,5,2.0
1,1,11,180661,182181,182181,183188,183188,183792,183825,190825,190825,191440,191473,191506,194613,1520,1007,604,7000,615,790,0,600,1664,3140,3107,1064,159.5331961,13.95471688,1,57,-37,190,-1,-1,49,20,57,1.0
1,1,12,194616,196138,196138,197143,197143,197745,197778,204278,204278,204895,204927,204960,208079,1522,1005,602,6500,617,415,0,600,2039,3152,3119,1439,172.9993699,13.4661738,1,7,7,160,1,1,51,14,7,2.0
1,1,13,208082,209602,209602,210605,210605,211211,211244,219244,219244,219876,219908,219941,223035,1520,1003,606,8000,632,550,0,600,1889,3127,3094,1289,187.9550143,14.95564444,1,14,14,180,1,1,51,28,14,2.0
1,1,14,223037,224562,224562,225567,225567,226168,226200,233700,233700,234303,234336,234369,237469,1525,1005,601,7500,603,1075,0,600,1391,3133,3100,791,202.3891717,14.43415736,1,28,-14,160,-1,-1,49,14,28,1.0
1,1,15,237471,238990,238990,239990,239990,240590,240622,247622,247622,248222,248255,248288,251409,1519,1000,600,7000,600,1100,0,600,1381,3154,3121,781,216.3291404,13.93996876,1,14,-4,180,-1,-1,49,10,14,1.0
1,1,16,251412,252930,252930,253934,253934,254540,254572,263572,263572,264172,264205,264238,267354,1518,1004,606,9000,600,860,0,600,1612,3149,3116,1012,232.2737925,15.94465206,0,27,1,180,1,-1,49,28,27,1.0
1,1,17,267356,268881,268881,269886,269886,270508,270540,279040,279040,279666,279699,279733,282807,1525,1005,622,8500,626,566,0,600,1856,3108,3074,1256,247.7271878,15.45339531,1,10,-3,200,-1,-1,49,7,10,1.0
1,1,18,282810,284333,284333,285335,285335,285942,285974,291974,291974,292593,292625,292658,295759,1523,1002,607,6000,619,396,0,600,2053,3134,3101,1453,260.6791425,12.9519547,1,7,13,160,1,1,51,20,7,2.0
1,1,19,295762,297282,297282,298283,298283,298889,298921,306921,306921,307522,307555,307588,310715,1520,1001,606,8000,601,618,0,600,1854,3160,3127,1254,275.6347225,14.95557995,1,40,-12,190,-1,-1,49,28,40,1.0
1,1,20,310718,312237,312237,313242,313242,313862,313895,320395,320395,321025,321057,321091,324150,1519,1005,620,6500,630,487,0,600,1939,3093,3059,1339,289.0694762,13.43475373,1,14,-9,170,-1,-1,49,5,14,1.0
1,1,21,324152,325677,325677,326679,326679,327298,327331,334831,334831,335443,335475,335508,338592,1525,1002,619,7500,612,643,0,600,1799,3117,3084,1199,303.5118146,14.44233844,1,3,2,180,1,1,51,5,3,2.0
1,1,22,338594,340112,340112,341116,341116,341734,341766,350266,350266,350882,350915,350948,354045,1518,1004,618,8500,616,488,0,600,1956,3130,3097,1356,318.9647938,15.45297914,1,3,2,190,1,1,51,5,3,2.0
1,1,23,354047,355569,355569,356572,356572,357177,357209,363709,363709,364334,364366,364399,367483,1522,1003,605,6500,625,698,0,600,1747,3117,3084,1147,332.4027255,13.43793178,1,10,10,210,1,1,51,20,10,2.0
1,1,24,367485,369011,369011,370042,370042,370648,370680,379680,379680,380280,380313,380347,383423,1526,1031,606,9000,600,629,0,600,1808,3110,3076,1208,348.3429324,15.94020683,1,40,-26,210,-1,-1,49,14,40,1.0
1,1,25,383426,384949,384949,385956,385956,386559,386592,393592,393592,394192,394225,394258,397384,1523,1007,603,7000,600,776,0,600,1691,3159,3126,1091,362.3034503,13.96051789,1,14,6,160,1,1,51,20,14,2.0
1,1,26,397387,398911,398911,399915,399915,400519,400552,408552,408552,409183,409216,409250,412325,1524,1004,604,8000,631,625,0,600,1812,3109,3075,1212,377.2445774,14.94112716,1,10,10,200,1,1,51,20,10,2.0
1,1,27,412327,413855,413855,414858,414858,415458,415491,422991,422991,423623,423656,423689,426789,1528,1003,600,7500,632,560,0,600,1877,3133,3100,1277,391.7086454,14.46406796,1,28,-18,200,-1,-1,49,10,28,1.0
1,1,28,426791,428315,428315,429322,429322,429925,429957,435957,435957,436589,436621,436654,439731,1524,1007,603,6000,632,1016,0,600,1418,3110,3077,818,404.6505678,12.94192242,1,13,1,160,1,1,51,14,13,2.0
1,1,29,439734,441255,441255,442259,442259,442886,442919,449919,449919,450519,450551,450584,453679,1521,1004,627,7000,600,1169,0,600,1279,3128,3095,679,418.5987435,13.94817576,1,14,-4,170,-1,-1,49,10,14,1.0
1,1,30,453681,455201,455201,456208,456208,456827,456859,464359,464359,464975,465007,465041,468140,1520,1007,619,7500,616,782,0,600,1656,3133,3099,1056,433.0594484,14.46070488,1,6,1,170,1,1,51,7,6,2.0
1,1,31,468142,469662,469662,470665,470665,471269,471301,479801,479801,480401,480434,480467,483594,1520,1003,604,8500,600,809,0,600,1664,3160,3127,1064,448.513768,15.45431955,1,40,-26,160,-1,-1,49,14,40,1.0
1,1,32,483597,485118,485118,486121,486121,486722,486755,494755,494755,495369,495402,495436,498537,1521,1003,601,8000,614,497,0,600,1964,3135,3101,1364,463.4565872,14.94281924,1,7,3,170,1,1,51,10,7,2.0
1,1,33,498540,500059,500059,501061,501061,501665,501697,510697,510697,511310,511343,511376,514496,1519,1002,604,9000,613,707,0,600,1755,3153,3120,1155,479.4150285,15.95844128,1,56,-28,180,-1,-1,49,28,56,1.0
1,1,34,514499,516025,516025,517034,517034,517652,517684,524184,524184,524799,524831,524864,527932,1526,1009,618,6500,615,912,0,600,1520,3101,3068,920,492.8517392,13.43671071,1,3,2,190,1,1,51,5,3,2.0
1,1,35,527935,529456,529456,530459,530459,531066,531098,537098,537098,537728,537760,537794,540879,1521,1003,607,6000,630,903,0,600,1536,3119,3085,936,505.7987924,12.94705322,1,10,4,210,1,1,51,14,10,2.0
1,1,36,540881,542402,542402,543408,543408,544010,544043,552543,552543,553160,553192,553226,556319,1521,1006,602,8500,617,518,0,600,1936,3127,3093,1336,521.2381725,15.43938007,1,5,5,170,1,1,51,10,5,2.0
1,2,37,39409,40930,40930,41935,41935,42539,42571,49071,49071,49698,49730,49765,52859,1521,1005,604,6500,627,552,0,600,1891,3129,3094,1291,13.45142839,13.45142839,1,10,18,170,1,1,51,28,10,2.0
1,2,38,52862,54383,54383,55389,55389,56015,56048,64048,64048,64662,64694,64727,67819,1521,1006,626,8000,614,1169,0,600,1264,3125,3092,664,28.41133484,14.95990645,1,6,1,180,1,1,51,7,6,2.0
1,2,39,67822,69345,69345,70351,70351,70956,70988,79988,79988,80602,80635,80669,83770,1523,1006,605,9000,614,559,0,600,1893,3135,3101,1293,44.36245148,15.95111664,1,5,9,170,1,1,51,14,5,2.0
1,2,40,83773,85291,85291,86294,86294,86913,86945,95445,95445,96072,96104,96138,99211,1518,1003,619,8500,627,664,0,600,1769,3107,3073,1169,59.80287182,15.44042034,1,10,-3,190,-1,-1,49,7,10,1.0
1,2,41,99213,100733,100733,101738,101738,102343,102375,109875,109875,110475,110508,110541,113644,1520,1005,605,7500,600,982,0,600,1488,3136,3103,888,74.23593045,14.43305863,1,14,14,150,1,1,51,28,14,2.0
1,2,42,113646,115168,115168,116169,116169,116771,116803,123803,123803,124434,124467,124501,127608,1522,1001,602,7000,631,468,0,600,1976,3141,3107,1376,88.20058739,13.96465695,1,28,-14,150,-1,-1,49,14,28,1.0
1,2,43,127611,129134,129134,130139,130139,130744,130776,136776,136776,137376,137408,137442,140566,1523,1005,605,6000,600,584,0,600,1883,3158,3124,1283,101.1583277,12.95774034,1,28,-8,180,-1,-1,49,20,28,1.0
1,2,44,140569,142087,142087,143092,143092,143692,143724,152224,152224,152840,152872,152905,156016,1518,1005,600,8500,616,570,0,600,1891,3144,3111,1291,116.6083145,15.44998673,1,5,5,200,1,1,51,10,5,2.0
1,2,45,156019,157541,157541,158542,158542,159160,159192,166692,166692,167312,167345,167379,170478,1522,1001,618,7500,620,1267,0,600,1172,3133,3099,572,131.0695729,14.46125846,1,6,1,200,1,1,51,7,6,2.0
1,2,46,170481,172006,172006,173011,173011,173616,173648,181648,181648,182266,182298,182331,185428,1525,1005,605,8000,618,976,0,600,1471,3130,3097,871,146.0198901,14.95031716,1,7,7,150,1,1,51,14,7,2.0
1,2,47,185431,186948,186948,187956,187956,188581,188613,195113,195113,195739,195771,195805,198876,1517,1008,625,6500,626,530,0,600,1894,3105,3071,1294,159.4679828,13.44809273,1,10,-5,200,-1,-1,49,5,10,1.0
1,2,48,198879,200404,200404,201409,201409,202012,202045,209045,209045,209659,209691,209724,212825,1525,1005,603,7000,614,458,0,600,1995,3134,3101,1395,173.417103,13.94912019,1,4,6,160,1,1,51,10,4,2.0
1,2,49,212828,214353,214353,215355,215355,215979,216012,222012,222012,222612,222645,222679,225790,1525,1002,624,6000,600,573,0,600,1876,3145,3111,1276,186.3820583,12.96495528,1,20,-13,190,-1,-1,49,7,20,1.0
1,2,50,225793,227313,227313,228318,228318,228923,228956,237956,237956,238557,238589,238622,241750,1520,1005,605,9000,601,1236,0,600,1233,3161,3128,633,202.3420832,15.96002488,1,40,-20,210,-1,-1,49,20,40,1.0
1,2,51,241753,243270,243270,244275,244275,244895,244928,251928,251928,252544,252577,252610,255711,1517,1005,620,7000,616,465,0,600,1977,3134,3101,1377,216.3031149,13.96103169,1,2,3,210,1,1,51,5,2,2.0
1,2,52,255714,257232,257232,258235,258235,258839,258872,264872,264872,265473,265505,265539,268677,1518,1003,604,6000,601,1042,0,600,1432,3172,3138,832,229.2689853,12.96587049,1,14,14,190,1,1,51,28,14,2.0
1,2,53,268680,270200,270200,271205,271205,271809,271841,280341,280341,280942,280975,281009,284120,1520,1005,604,8500,601,1150,0,600,1320,3145,3111,720,244.711629,15.4426437,0,13,1,150,1,-1,49,14,13,1.0
1,2,54,284123,285642,285642,286648,286648,287254,287287,294787,294787,295387,295419,295452,298580,1519,1006,606,7500,600,813,0,600,1656,3161,3128,1056,259.1722559,14.46062683,1,20,8,150,1,1,51,28,20,2.0
1,2,55,298583,300102,300102,301104,301104,301734,301768,308268,308268,308899,308932,308965,312036,1519,1002,630,6500,631,754,0,600,1664,3104,3071,1064,272.6278465,13.45559065,1,20,-10,150,-1,-1,49,10,20,1.0
1,2,56,312039,313560,313560,314565,314565,315170,315202,323202,323202,323804,323837,323870,326973,1521,1005,605,8000,602,980,0,600,1487,3136,3103,887,287.5644097,14.93656319,1,40,-12,210,-1,-1,49,28,40,1.0
1,2,57,326976,328497,328497,329499,329499,330119,330151,339151,339151,339765,339798,339831,342907,1521,1002,620,9000,614,955,0,600,1488,3109,3076,888,303.4987119,15.93430216,1,3,2,210,1,1,51,5,3,2.0
1,2,58,342910,344431,344431,345435,345435,346064,346096,352096,352096,352714,352746,352779,355842,1521,1004,629,6000,618,910,0,600,1518,3096,3063,918,316.4336454,12.93493349,1,7,3,200,1,1,51,10,7,2.0
1,2,59,355845,357365,357365,358370,358370,358977,359009,367509,367509,368109,368141,368174,371278,1520,1005,607,8500,600,883,0,600,1585,3137,3104,985,331.8691109,15.43546552,0,27,1,200,1,-1,49,28,27,1.0
1,2,60,371280,372805,372805,373813,373813,374416,374449,380949,380949,381565,381597,381630,384713,1525,1008,603,6500,616,414,0,600,2034,3116,3083,1434,345.3050251,13.43591423,1,5,9,180,1,1,51,14,5,2.0
1,2,61,384715,386239,386239,387245,387245,387875,387908,396908,396908,397508,397540,397573,400657,1524,1006,630,9000,600,1054,0,600,1386,3117,3084,786,361.2485007,15.94347558,1,14,-4,180,-1,-1,49,10,14,1.0
1,2,62,400660,402178,402178,403183,403183,403801,403833,411333,411333,411951,411984,412018,415094,1518,1005,618,7500,618,853,0,600,1588,3110,3076,988,375.6858418,14.43734113,1,4,1,150,1,1,51,5,4,2.0
1,2,63,415097,416619,416619,417623,417623,418247,418279,425279,425279,425905,425938,425972,429032,1522,1004,624,7000,626,524,0,600,1900,3094,3060,1300,389.6239269,13.93808502,1,10,-3,200,-1,-1,49,7,10,1.0
1,2,64,429035,430558,430558,431562,431562,432183,432215,440215,440215,440832,440865,440899,443973,1523,1004,621,8000,617,499,0,600,1936,3108,3074,1336,404.564366,14.94043917,1,2,3,160,1,1,51,5,2,2.0
1,2,65,443976,445498,445498,446503,446503,447105,447138,453638,453638,454269,454301,454335,457438,1522,1005,602,6500,631,1144,0,600,1296,3137,3103,696,418.0294082,13.46504222,1,19,1,150,1,1,51,20,19,2.0
1,2,66,457441,458962,458962,459966,459966,460572,460604,466604,466604,467222,467255,467289,470402,1521,1004,606,6000,618,632,0,600,1819,3147,3113,1219,430.9933652,12.96395691,1,57,-37,160,-1,-1,49,20,57,1.0
1,2,67,470405,471930,471930,472936,472936,473559,473591,480591,480591,481223,481255,481289,484342,1525,1006,623,7000,632,634,0,600,1780,3087,3053,1180,444.9338363,13.94047111,1,14,-9,160,-1,-1,49,5,14,1.0
1,2,68,484345,485868,485868,486874,486874,487479,487511,496011,496011,496631,496664,496698,499788,1523,1006,605,8500,620,450,0,600,1996,3124,3090,1396,460.3796806,15.44584435,1,7,13,180,1,1,51,20,7,2.0
1,2,69,499791,501312,501312,502318,502318,502924,502956,510956,510956,511574,511606,511640,514727,1521,1006,606,8000,618,637,0,600,1812,3121,3087,1212,475.3192766,14.93959599,1,57,-37,150,-1,-1,49,20,57,1.0
1,2,70,514730,516251,516251,517256,517256,517863,517895,526895,526895,527525,527558,527591,530662,1521,1005,607,9000,630,693,0,600,1744,3104,3071,1144,491.2532913,15.93401467,1,10,4,150,1,1,51,14,10,2.0
1,2,71,530665,532188,532188,533193,533193,533812,533845,541345,541345,541963,541995,542029,545111,1523,1005,619,7500,618,1121,0,600,1314,3116,3082,714,505.7022691,14.4489778,1,6,1,210,1,1,51,7,6,2.0
1,2,72,545114,546635,546635,547638,547638,548242,548274,555774,555774,556375,556408,556441,559565,1521,1003,604,7500,601,551,0,600,1920,3157,3124,1320,520.1565043,14.45423517,1,28,-18,160,-1,-1,49,10,28,1.0
1,3,73,39570,41093,41093,42100,42100,42730,42763,51763,51763,52385,52417,52450,55515,1523,1007,630,9000,622,557,0,600,1861,3098,3065,1261,15.94553562,15.94553562,1,5,5,180,1,1,51,10,5,2.0
1,3,74,55518,57041,57041,58045,58045,58650,58683,67183,67183,67814,67847,67880,70961,1523,1004,605,8500,631,1061,0,600,1376,3114,3081,776,31.39184225,15.44630663,1,27,1,190,1,1,51,28,27,2.0
1,3,75,70963,72482,72482,73488,73488,74118,74151,81151,81151,81776,81808,81841,84913,1519,1006,630,7000,625,432,0,600,1988,3105,3072,1388,45.34348535,13.9516431,1,5,5,150,1,1,51,10,5,2.0
1,3,76,84915,86437,86437,87438,87438,88043,88075,94575,94575,95191,95224,95258,98348,1522,1001,605,6500,616,542,0,600,1914,3124,3090,1314,58.77891652,13.43543117,1,79,-51,210,-1,-1,49,28,79,1.0
1,3,77,98351,99873,99873,100875,100875,101477,101509,107509,107509,108134,108166,108199,111311,1522,1002,602,6000,625,535,0,600,1914,3145,3112,1314,71.74113885,12.96222233,1,5,9,160,1,1,51,14,5,2.0
1,3,78,111314,112831,112831,113837,113837,114438,114471,121971,121971,122572,122604,122637,125760,1517,1006,601,7500,601,676,0,600,1799,3156,3123,1199,86.19076214,14.4496233,1,19,1,200,1,1,51,20,19,2.0
1,3,79,125763,127289,127289,128293,128293,128898,128931,136931,136931,137533,137566,137599,140723,1526,1004,605,8000,602,910,0,600,1553,3157,3124,953,101.1534543,14.96269214,1,10,10,190,1,1,51,20,10,2.0
1,3,80,140726,142248,142248,143249,143249,143855,143887,151387,151387,151987,152020,152054,155187,1522,1001,606,7500,600,365,0,600,2106,3167,3133,1506,115.6173565,14.46390221,1,40,-12,190,-1,-1,49,28,40,1.0
1,3,81,155190,156715,156715,157719,157719,158340,158372,166872,166872,167504,167536,167569,170649,1525,1004,621,8500,632,632,0,600,1786,3113,3080,1186,131.079701,15.46234453,1,14,-9,200,-1,-1,49,5,14,1.0
1,3,82,170652,172177,172177,173184,173184,173792,173824,179824,179824,180456,180489,180522,183613,1525,1007,608,6000,632,809,0,600,1619,3124,3091,1019,144.0433313,12.96363024,1,28,-14,210,-1,-1,49,14,28,1.0
1,3,83,183616,185138,185138,186140,186140,186759,186791,194791,194791,195408,195440,195473,198564,1522,1002,619,8000,617,582,0,600,1858,3124,3091,1258,158.9939796,14.95064834,1,2,3,200,1,1,51,5,2,2.0
1,3,84,198567,200087,200087,201092,201092,201719,201751,210751,210751,211351,211383,211416,214503,1520,1005,627,9000,600,610,0,600,1838,3120,3087,1238,174.9333625,15.93938294,1,14,-4,150,-1,-1,49,10,14,1.0
1,3,85,214506,216027,216027,217032,217032,217654,217686,224186,224186,224810,224843,224876,227948,1521,1005,622,6500,624,660,0,600,1768,3105,3072,1168,188.378301,13.44493849,1,4,1,180,1,1,51,5,4,2.0
1,3,86,227951,229475,229475,230478,230478,231081,231113,238113,238113,238714,238746,238780,241887,1524,1003,603,7000,601,1212,0,600,1257,3141,3107,657,202.3177418,13.93944079,1,14,6,180,1,1,51,20,14,2.0
1,3,87,241889,243409,243409,244412,244412,245031,245064,251064,251064,251693,251725,251759,254845,1520,1003,619,6000,629,344,0,600,2085,3120,3086,1485,215.2752001,12.95745827,1,20,-13,170,-1,-1,49,7,20,1.0
1,3,88,254848,256370,256370,257372,257372,257978,258011,264511,264511,265143,265176,265209,268296,1522,1002,606,6500,632,1386,0,600,1052,3120,3087,452,228.725873,13.4506729,1,19,1,200,1,1,51,20,19,2.0
1,3,89,268298,269820,269820,270827,270827,271432,271464,278464,278464,279064,279096,279130,282253,1522,1007,605,7000,600,1222,0,600,1244,3157,3123,644,242.6828407,13.95696767,1,20,-6,190,-1,-1,49,14,20,1.0
1,3,90,282256,283775,283775,284778,284778,285396,285428,294428,294428,295046,295079,295112,298196,1519,1003,618,9000,618,576,0,600,1866,3117,3084,1266,258.6263747,15.94353405,1,4,1,190,1,1,51,5,4,2.0
1,3,91,298199,299723,299723,300727,300727,301347,301379,309879,309879,310511,310543,310576,313633,1524,1004,620,8500,632,802,0,600,1618,3090,3057,1018,274.0635239,15.43714917,1,14,-7,190,-1,-1,49,7,14,1.0
1,3,92,313636,315160,315160,316163,316163,316768,316801,324301,324301,324925,324957,324991,328068,1524,1003,605,7500,624,500,0,600,1944,3111,3077,1344,288.4976282,14.43410432,1,7,13,160,1,1,51,20,7,2.0
1,3,93,328071,329591,329591,330596,330596,331217,331249,339249,339249,339849,339881,339914,343020,1520,1005,621,8000,600,436,0,600,2018,3139,3106,1418,303.450261,14.95263274,1,10,-3,210,-1,-1,49,7,10,1.0
1,3,94,343023,344541,344541,345547,345547,346154,346187,352687,352687,353318,353350,353384,356474,1518,1006,607,6500,631,612,0,600,1826,3124,3090,1226,316.9039453,13.4536843,1,40,-12,160,-1,-1,49,28,40,1.0
1,3,95,356476,358001,358001,359002,359002,359605,359637,368637,368637,369257,369289,369323,372419,1525,1001,603,9000,620,644,0,600,1807,3130,3096,1207,332.8492136,15.94526832,1,4,6,190,1,1,51,10,4,2.0
1,3,96,372422,373939,373939,374946,374946,375550,375583,382583,382583,383194,383226,383259,386366,1517,1007,604,7000,611,531,0,600,1930,3140,3107,1330,346.7965856,13.94737205,1,79,-51,200,-1,-1,49,28,79,1.0
1,3,97,386369,387893,387893,388897,388897,389520,389552,397052,397052,397654,397686,397719,400821,1524,1004,623,7500,602,590,0,600,1857,3135,3102,1257,361.2507229,14.45413723,1,20,-13,190,-1,-1,49,7,20,1.0
1,3,98,400824,402344,402344,403347,403347,403969,404002,412502,412502,413120,413153,413186,416258,1520,1003,622,8500,618,1398,0,600,1039,3105,3072,439,376.6883647,15.43764188,1,5,2,160,1,1,51,7,5,2.0
1,3,99,416261,417788,417788,418795,418795,419415,419448,425448,425448,426067,426099,426132,429200,1527,1007,620,6000,619,879,0,600,1548,3101,3068,948,389.629965,12.94160028,1,4,1,210,1,1,51,5,4,2.0
1,3,100,429202,430730,430730,431735,431735,432354,432386,440386,440386,440988,441020,441054,444150,1528,1005,619,8000,602,585,0,600,1861,3130,3096,1261,404.5802686,14.9503036,1,20,-13,200,-1,-1,49,7,20,1.0
1,3,101,444153,445674,445674,446679,446679,447283,447315,453815,453815,454443,454475,454508,457605,1521,1005,604,6500,628,782,0,600,1660,3130,3097,1060,418.0346753,13.45440664,1,7,7,200,1,1,51,14,7,2.0
1,3,102,457607,459136,459136,460143,460143,460748,460780,468780,468780,469383,469416,469449,472550,1529,1007,605,8000,603,814,0,600,1642,3134,3101,1042,432.979962,14.9452867,0,19,1,150,1,-1,49,20,19,1.0
1,3,103,472552,474077,474077,475085,475085,475704,475736,484236,484236,484861,484894,484927,487985,1525,1008,619,8500,625,645,0,600,1778,3091,3058,1178,448.4153738,15.43541188,1,7,-2,180,-1,-1,49,5,7,1.0
1,3,104,487987,489512,489512,490517,490517,491147,491180,500180,500180,500805,500837,500871,503931,1525,1005,630,9000,625,1099,0,600,1316,3094,3060,716,464.3608233,15.94544943,1,9,1,200,1,1,51,10,9,2.0
1,3,105,503933,505455,505455,506461,506461,507067,507100,513100,513100,513732,513765,513798,516875,1522,1006,606,6000,632,1152,0,600,1282,3110,3077,682,477.3051222,12.94429888,0,10,4,160,1,-1,49,14,10,1.0
1,3,106,516878,518397,518397,519400,519400,520003,520034,527034,527034,527650,527683,527717,530837,1519,1003,603,7000,616,801,0,600,1658,3154,3120,1058,491.2664847,13.96136258,1,4,6,190,1,1,51,10,4,2.0
1,3,107,530840,532357,532357,533364,533364,533968,534000,541500,541500,542104,542136,542169,545277,1517,1007,604,7500,604,760,0,600,1708,3141,3108,1108,505.707013,14.44052822,1,40,-12,160,-1,-1,49,28,40,1.0
1,3,108,545280,546797,546797,547797,547797,548401,548433,554433,554433,555053,555085,555119,558220,1517,1000,604,6000,620,686,0,600,1773,3135,3101,1173,518.6500154,12.94300246,1,7,7,160,1,1,51,14,7,2.0
1,4,109,40347,41871,41871,42877,42877,43502,43534,52534,52534,53134,53166,53200,56290,1524,1006,625,9000,600,509,0,600,1936,3124,3090,1336,15.94447125,15.94447125,1,10,-3,200,-1,-1,49,7,10,1.0
1,4,110,56293,57818,57818,58827,58827,59435,59468,67468,67468,68070,68102,68136,71251,1525,1009,608,8000,602,990,0,600,1466,3149,3115,866,30.90531249,14.96084124,1,20,8,200,1,1,51,28,20,2.0
1,4,111,71254,72774,72774,73778,73778,74400,74432,80432,80432,81049,81081,81115,84204,1520,1004,622,6000,617,645,0,600,1792,3123,3089,1192,43.85844848,12.95313599,1,3,2,210,1,1,51,5,3,2.0
1,4,112,84207,85727,85727,86731,86731,87347,87380,94380,94380,95001,95034,95068,98141,1520,1004,616,7000,621,331,0,600,2108,3107,3073,1508,57.79562161,13.93717313,1,7,-2,200,-1,-1,49,5,7,1.0
1,4,113,98144,99667,99667,100674,100674,101300,101332,107832,107832,108464,108496,108529,111581,1523,1007,626,6500,632,668,0,600,1744,3085,3052,1144,71.23508425,13.43946264,1,10,-3,200,-1,-1,49,7,10,1.0
1,4,114,111584,113109,113109,114113,114113,114738,114770,123270,123270,123901,123934,123968,127036,1525,1004,625,8500,631,524,0,600,1891,3102,3068,1291,86.69036451,15.45528026,1,10,-5,170,-1,-1,49,5,10,1.0
1,4,115,127039,128559,128559,129565,129565,130199,130231,137731,137731,138342,138375,138408,141498,1520,1006,634,7500,611,449,0,600,1980,3123,3090,1380,101.1518321,14.4614676,1,5,5,160,1,1,51,10,5,2.0
1,4,116,141501,143022,143022,144028,144028,144637,144669,150669,150669,151301,151334,151368,154463,1521,1006,609,6000,632,1103,0,600,1329,3129,3095,729,114.11714,12.96530786,1,28,-8,150,-1,-1,49,20,28,1.0
1,4,117,154466,155990,155990,156997,156997,157628,157660,164660,164660,165280,165312,165345,168405,1524,1007,631,7000,620,454,0,600,1964,3093,3060,1364,128.0591305,13.94199053,1,5,5,160,1,1,51,10,5,2.0
1,4,118,168408,169927,169927,170931,170931,171535,171567,180067,180067,180698,180731,180764,183841,1519,1004,604,8500,631,497,0,600,1945,3110,3077,1345,143.4950122,15.43588169,1,10,18,170,1,1,51,28,10,2.0
1,4,119,183844,185369,185369,186371,186371,186978,187010,194510,194510,195110,195142,195176,198284,1525,1002,607,7500,600,790,0,600,1676,3142,3108,1076,157.9382842,14.44327202,1,28,-14,170,-1,-1,49,14,28,1.0
1,4,120,198287,199807,199807,200809,200809,201429,201462,209462,209462,210064,210097,210130,213246,1520,1002,620,8000,602,1151,0,600,1305,3149,3116,705,172.8995814,14.96129718,1,15,-1,210,-1,-1,49,14,15,1.0
1,4,121,213249,214771,214771,215780,215780,216384,216416,222916,222916,223534,223567,223600,226693,1522,1009,604,6500,618,578,0,600,1869,3126,3093,1269,186.3472914,13.44771002,1,20,8,150,1,1,51,28,20,2.0
1,4,122,226696,228220,228220,229224,229224,229848,229880,238880,238880,239500,239532,239566,242642,1524,1004,624,9000,620,1732,0,600,696,3110,3076,96,202.2955356,15.94824416,1,5,2,180,1,1,51,7,5,2.0
1,4,123,242645,244163,244163,245168,245168,245772,245804,252304,252304,252908,252941,252975,256100,1518,1005,604,6500,604,1224,0,600,1245,3159,3125,645,215.7540219,13.45848633,1,15,-1,160,-1,-1,49,14,15,1.0
1,4,124,256103,257625,257625,258635,258635,259240,259272,267772,267772,268394,268427,268460,271542,1522,1010,605,8500,622,865,0,600,1576,3115,3082,976,231.19626,15.44223809,1,20,-6,210,-1,-1,49,14,20,1.0
1,4,125,271545,273068,273068,274071,274071,274675,274708,282208,282208,282840,282873,282906,286003,1523,1003,604,7500,632,1493,0,600,945,3130,3097,345,245.656775,14.46051503,1,11,-1,210,-1,-1,49,10,11,1.0
1,4,126,286006,287529,287529,288535,288535,289139,289172,297172,297172,297788,297820,297853,300953,1523,1006,604,8000,616,1432,0,600,1019,3133,3100,419,260.6070183,14.95024333,1,21,-1,150,-1,-1,49,20,21,1.0
1,4,127,300956,302480,302480,303485,303485,304090,304122,311122,311122,311738,311770,311804,314917,1524,1005,605,7000,616,795,0,600,1655,3147,3113,1055,274.5707869,13.96376856,1,79,-51,160,-1,-1,49,28,79,1.0
1,4,128,314920,316442,316442,317444,317444,318048,318080,324080,324080,324697,324730,324763,327877,1522,1002,604,6000,617,408,0,600,2047,3147,3114,1447,287.5312002,12.96041332,1,5,5,190,1,1,51,10,5,2.0
1,4,129,327880,329399,329399,330406,330406,331023,331055,340055,340055,340670,340703,340736,343833,1519,1007,617,9000,615,558,0,600,1884,3130,3097,1284,303.4864541,15.95525389,1,2,5,190,1,1,51,7,2,2.0
1,4,130,343836,345354,345354,346357,346357,346961,346994,354494,354494,355094,355127,355160,358272,1518,1003,604,7500,600,504,0,600,1971,3145,3112,1371,317.9252945,14.43884035,1,15,-1,210,-1,-1,49,14,15,1.0
1,4,131,358274,359798,359798,360802,360802,361422,361454,368454,368454,369072,369104,369138,372220,1524,1004,620,7000,618,539,0,600,1895,3116,3082,1295,331.8737785,13.94848404,1,2,3,200,1,1,51,5,2,2.0
1,4,132,372223,373747,373747,374749,374749,375356,375388,381388,381388,382008,382040,382073,385156,1524,1002,607,6000,620,795,0,600,1652,3116,3083,1052,344.8095944,12.93581584,1,56,-28,200,-1,-1,49,28,56,1.0
1,4,133,385159,386684,386684,387688,387688,388305,388338,397338,397338,397938,397970,398004,401103,1525,1004,617,9000,600,908,0,600,1546,3133,3099,946,360.7568245,15.94723012,0,21,-1,160,-1,1,51,20,21,2.0
1,4,134,401106,402631,402631,403639,403639,404263,404295,410795,410795,411412,411444,411478,414552,1525,1008,624,6500,617,1499,0,600,927,3108,3074,327,374.205186,13.44836154,1,6,-1,170,-1,-1,49,5,6,1.0
1,4,135,414555,416079,416079,417082,417082,417685,417717,426217,426217,426833,426865,426898,430000,1524,1003,603,8500,616,884,0,600,1570,3135,3102,970,389.6532272,15.4480412,1,57,-37,150,-1,-1,49,20,57,1.0
1,4,136,430003,431524,431524,432527,432527,433132,433164,441164,441164,441767,441799,441833,444950,1521,1003,605,8000,603,1415,0,600,1053,3151,3117,453,404.6036779,14.95045066,1,40,-20,180,-1,-1,49,20,40,1.0
1,4,137,444953,446474,446474,447479,447479,448085,448117,456117,456117,456749,456781,456815,459907,1521,1005,606,8000,632,1552,0,600,884,3126,3092,284,419.5601616,14.9564837,0,21,-1,180,-1,1,51,20,21,2.0
1,4,138,459909,461431,461431,462437,462437,463055,463087,471587,471587,472205,472237,472270,475360,1522,1006,618,8500,618,1099,0,600,1337,3123,3090,737,435.0138109,15.45364935,1,6,-1,150,-1,-1,49,5,6,1.0
1,4,139,475363,476887,476887,477891,477891,478513,478545,485545,485545,486162,486194,486228,489301,1524,1004,622,7000,617,595,0,600,1838,3107,3073,1238,448.9542866,13.94047563,1,2,5,160,1,1,51,7,2,2.0
1,4,140,489304,490823,490823,491830,491830,492435,492468,501468,501468,502088,502120,502153,505254,1519,1007,605,9000,620,557,0,600,1892,3134,3101,1292,464.9076745,15.95338792,1,5,5,170,1,1,51,10,5,2.0
1,4,141,505256,506779,506779,507782,507782,508388,508420,514921,514921,515539,515571,515604,518696,1523,1003,606,6501,618,488,0,600,1961,3125,3092,1361,478.349783,13.44210851,1,56,-28,160,-1,-1,49,28,56,1.0
1,4,142,518698,520219,520219,521224,521224,521827,521860,529360,529360,529992,530025,530058,533153,1521,1005,603,7500,632,878,0,600,1561,3128,3095,961,492.8063587,14.45657577,1,20,-10,200,-1,-1,49,10,20,1.0
1,4,143,533156,534679,534679,535683,535683,536286,536318,542318,542318,542918,542950,542983,546109,1523,1004,603,6000,600,1425,0,600,1045,3159,3126,445,505.7627677,12.95640897,0,15,-1,210,-1,1,51,14,15,2.0
1,4,144,546112,547637,547637,548643,548643,549268,549300,555300,555300,555915,555947,555981,559044,1525,1006,625,6000,615,874,0,600,1555,3097,3063,955,518.6977069,12.93493921,1,5,2,150,1,1,51,7,5,2.0
1,5,145,38964,40489,40489,41495,41495,42097,42129,48129,48129,48746,48778,48812,51909,1525,1006,602,6000,617,585,0,600,1865,3131,3097,1265,12.94545124,12.94545124,1,2,5,150,1,1,51,7,2,2.0
1,5,146,51912,53442,53442,54449,54449,55052,55084,64084,64084,64714,64745,64779,67849,1530,1007,603,9000,630,329,0,600,2101,3104,3070,1501,28.88586992,15.94041868,1,4,6,200,1,1,51,10,4,2.0
1,5,147,67852,69371,69371,70373,70373,70976,71008,79008,79008,79625,79657,79691,82808,1519,1002,603,8000,617,440,0,600,2019,3151,3117,1419,43.84383898,14.95796906,1,2,5,200,1,1,51,7,2,2.0
1,5,148,82811,84335,84335,85342,85342,85942,85975,92475,92475,93107,93139,93173,96271,1524,1007,600,6500,632,521,0,600,1916,3132,3098,1316,57.30748354,13.46364456,1,20,-10,150,-1,-1,49,10,20,1.0
1,5,149,96274,97800,97800,98806,98806,99412,99445,106445,106445,107048,107080,107114,110219,1526,1006,606,7000,603,791,0,600,1668,3139,3105,1068,71.25488814,13.9474046,1,40,-20,170,-1,-1,49,20,40,1.0
1,5,150,110222,111743,111743,112747,112747,113371,113403,120903,120903,121535,121568,121601,124658,1521,1004,624,7500,632,1192,0,600,1227,3090,3057,627,85.69420855,14.43932041,1,9,1,190,1,1,51,10,9,2.0
1,5,151,124661,126182,126182,127186,127186,127806,127838,136338,136338,136938,136970,137003,140094,1521,1004,620,8500,600,1260,0,600,1195,3124,3091,595,101.1303931,15.43618455,1,6,1,160,1,1,51,7,6,2.0
1,5,152,140097,141617,141617,142620,142620,143226,143258,151258,151258,151859,151892,151925,155040,1520,1003,606,8000,601,506,0,600,1964,3148,3115,1364,116.0761589,14.94576585,1,28,-14,180,-1,-1,49,14,28,1.0
1,5,153,155042,156564,156564,157565,157565,158184,158217,164717,164717,165333,165365,165398,168492,1522,1001,619,6500,616,385,0,600,2057,3127,3094,1457,129.5283874,13.45222848,1,2,5,180,1,1,51,7,2,2.0
1,5,154,168495,170018,170018,171022,171022,171628,171661,180161,180161,180762,180795,180828,183952,1523,1004,606,8500,601,742,0,600,1724,3157,3124,1124,144.988351,15.45996355,1,28,-8,210,-1,-1,49,20,28,1.0
1,5,155,183955,185477,185477,186485,186485,187090,187123,194123,194123,194723,194755,194789,197902,1522,1008,605,7000,600,436,0,600,2029,3147,3113,1429,158.9382972,13.94994619,1,40,-26,190,-1,-1,49,14,40,1.0
1,5,156,197905,199428,199428,200436,200436,201065,201097,208597,208597,209197,209229,209263,212338,1523,1008,629,7500,600,401,0,600,2039,3109,3075,1439,173.3738754,14.43557823,1,14,-9,210,-1,-1,49,5,14,1.0
1,5,157,212341,213863,213863,214867,214867,215470,215502,224502,224502,225129,225161,225194,228288,1522,1004,603,9000,627,808,0,600,1636,3127,3094,1036,189.3235184,15.94964303,1,4,3,210,1,1,51,7,4,2.0
1,5,158,228290,229813,229813,230820,230820,231423,231456,237456,237456,238086,238118,238152,241244,1523,1007,603,6000,630,2139,0,600,298,3126,3092,-302,202.2803716,12.95685316,1,6,1,200,1,1,51,7,6,2.0
1,5,159,241248,242768,242768,243775,243775,244378,244410,250910,250910,251512,251545,251578,254697,1520,1007,603,6500,602,964,0,600,1504,3152,3119,904,215.7328128,13.45244123,1,10,4,180,1,1,51,14,10,2.0
1,5,160,254700,256221,256221,257225,257225,257853,257887,265387,265387,266002,266034,266068,269147,1521,1004,628,7500,615,340,0,600,2092,3113,3079,1492,230.1831232,14.45031038,1,3,2,160,1,1,51,5,3,2.0
1,5,161,269150,270673,270673,271678,271678,272285,272317,279317,279317,279918,279950,279983,283085,1523,1005,607,7000,601,331,0,600,2133,3135,3102,1533,244.1207532,13.93762998,1,10,18,210,1,1,51,28,10,2.0
1,5,162,283088,284612,284612,285620,285620,286228,286260,294260,294260,294892,294925,294959,298033,1524,1008,608,8000,632,1020,0,600,1408,3108,3074,808,259.0690697,14.94831649,1,28,-8,150,-1,-1,49,20,28,1.0
1,5,163,298036,299559,299559,300568,300568,301171,301204,307204,307204,307805,307839,307872,310997,1523,1009,603,6000,601,778,0,600,1686,3158,3125,1086,272.0328412,12.96377158,1,20,8,180,1,1,51,28,20,2.0
1,5,164,311000,312526,312526,313532,313532,314136,314168,322668,322668,323300,323333,323367,326456,1526,1006,604,8500,632,1290,0,600,1142,3123,3089,542,287.4910759,15.4582347,0,14,-4,160,-1,1,51,10,14,2.0
1,5,165,326458,327981,327981,328987,328987,329604,329636,338636,338636,339266,339298,339331,342410,1523,1006,617,9000,630,565,0,600,1859,3112,3079,1259,303.4461746,15.95509869,1,4,1,190,1,1,51,5,4,2.0
1,5,166,342413,343937,343937,344944,344944,345574,345606,354106,354106,354728,354760,354793,357853,1524,1007,630,8500,622,1550,0,600,867,3093,3060,267,318.8892294,15.44305475,1,4,1,170,1,1,51,5,4,2.0
1,5,167,357856,359380,359380,360384,360384,360988,361020,368020,368020,368635,368668,368701,371812,1524,1004,604,7000,615,443,0,600,2010,3144,3111,1410,332.8479395,13.95871008,1,57,-37,170,-1,-1,49,20,57,1.0
1,5,168,371815,373337,373337,374343,374343,374961,374993,381493,381493,382126,382160,382194,385272,1522,1006,618,6500,633,668,0,600,1753,3112,3078,1153,346.3073687,13.45942926,1,13,1,210,1,1,51,14,13,2.0
1,5,169,385275,386799,386799,387804,387804,388410,388443,396443,396443,397043,397075,397108,400207,1524,1005,606,8000,600,1691,0,600,774,3132,3099,174,361.2426147,14.93524599,1,28,-8,170,-1,-1,49,20,28,1.0
1,5,170,400210,401732,401732,402735,402735,403341,403375,412375,412375,412994,413028,413062,416159,1522,1003,606,9000,619,460,0,600,1990,3131,3097,1390,377.1946719,15.95205716,1,56,-28,160,-1,-1,49,28,56,1.0
1,5,171,416161,417680,417680,418683,418683,419286,419318,425318,425318,425919,425951,425984,429122,1519,1003,603,6000,601,331,0,600,2143,3171,3138,1543,390.1577323,12.96306039,1,10,18,190,1,1,51,28,10,2.0
1,5,172,429125,430647,430647,431654,431654,432257,432290,439790,439790,440390,440422,440456,443567,1522,1007,603,7500,600,762,0,600,1706,3145,3111,1106,404.6022685,14.44453619,1,7,3,150,1,1,51,10,7,2.0
1,5,173,443569,445092,445092,446095,446095,446713,446746,455746,455746,456378,456411,456444,459528,1523,1003,618,9000,632,475,0,600,1949,3117,3084,1349,420.5633966,15.96112813,1,5,9,190,1,1,51,14,5,2.0
1,5,174,459531,461050,461050,462055,462055,462657,462690,470190,470190,470791,470823,470856,473988,1519,1005,602,7500,601,947,0,600,1526,3165,3132,926,435.0234129,14.46001629,1,7,3,190,1,1,51,10,7,2.0
1,5,175,473991,475517,475517,476521,476521,477128,477160,485660,485660,486262,486296,486329,489450,1526,1004,607,8500,602,1190,0,600,1271,3154,3121,671,450.4852138,15.46180089,1,20,-6,200,-1,-1,49,14,20,1.0
1,5,176,489453,490978,490978,491984,491984,492590,492622,499622,499622,500252,500285,500318,503398,1525,1006,606,7000,630,662,0,600,1771,3113,3080,1171,464.4333946,13.94818088,1,14,14,190,1,1,51,28,14,2.0
1,5,177,503401,504926,504926,505931,505931,506535,506567,514567,514567,515168,515200,515234,518354,1525,1005,604,8000,601,1155,0,600,1310,3154,3120,710,479.3890165,14.95562184,1,27,1,200,1,1,51,28,27,2.0
1,5,178,518357,519878,519878,520885,520885,521515,521547,527547,527547,528162,528195,528228,531292,1521,1007,630,6000,615,360,0,600,2067,3097,3064,1467,492.3279519,12.93893543,1,2,3,200,1,1,51,5,2,2.0
1,5,179,531296,532820,532820,533825,533825,534432,534464,540964,540964,541567,541600,541634,544746,1524,1005,607,6500,603,925,0,600,1536,3146,3112,936,505.7815687,13.4536168,1,28,-8,180,-1,-1,49,20,28,1.0
1,5,180,544749,546271,546271,547275,547275,547907,547939,554439,554439,555066,555098,555131,558189,1522,1004,632,6500,627,903,0,600,1512,3091,3058,912,519.22415,13.44258132,1,4,1,170,1,1,51,5,4,2.0
1,6,181,36753,38273,38273,39279,39279,39889,39921,45921,45921,46553,46586,46620,49688,1520,1006,610,6000,632,815,0,600,1617,3102,3068,1017,12.93635165,12.93635165,1,20,8,210,1,1,51,28,20,2.0
1,6,182,49691,51219,51219,52226,52226,52832,52864,61364,61364,61997,62029,62062,65147,1528,1007,606,8500,633,932,0,600,1494,3118,3085,894,28.39620671,15.45985507,1,10,4,170,1,1,51,14,10,2.0
1,6,183,65150,66673,66673,67676,67676,68308,68340,74840,74840,75456,75488,75521,78603,1523,1003,632,6500,616,508,0,600,1918,3115,3082,1318,41.85077187,13.45456515,1,3,2,190,1,1,51,5,3,2.0
1,6,184,78606,80128,80128,81131,81131,81735,81767,89267,89267,89868,89901,89934,93046,1522,1003,604,7500,601,598,0,600,1872,3145,3112,1272,56.29428617,14.44351431,1,28,-18,200,-1,-1,49,10,28,1.0
1,6,185,93049,94571,94571,95577,95577,96195,96228,105228,105228,105832,105864,105898,109004,1522,1006,618,9000,604,856,0,600,1594,3140,3106,994,72.25138915,15.95710298,1,14,-9,200,-1,-1,49,5,14,1.0
1,6,186,109006,110531,110531,111535,111535,112141,112174,119174,119174,119806,119840,119873,122965,1525,1004,606,7000,632,1265,0,600,1168,3125,3092,568,86.21285811,13.96146895,1,11,-1,210,-1,-1,49,10,11,1.0
1,6,187,122967,124490,124490,125494,125494,126100,126132,134132,134132,134738,134770,134804,137926,1523,1004,606,8000,606,1098,0,600,1363,3156,3122,763,101.17391,14.96105188,1,40,-12,190,-1,-1,49,28,40,1.0
1,6,188,137929,139451,139451,140455,140455,141056,141089,148589,148589,149193,149226,149260,152366,1522,1004,601,7500,604,624,0,600,1845,3140,3106,1245,115.6141655,14.4402555,1,20,-13,160,-1,-1,49,7,20,1.0
1,6,189,152369,153894,153894,154897,154897,155500,155532,163532,163532,164163,164196,164230,167318,1525,1003,603,8000,631,671,0,600,1767,3122,3088,1167,130.5657263,14.95156083,1,5,5,210,1,1,51,10,5,2.0
1,6,190,167321,168846,168846,169850,169850,170452,170484,179484,179484,180106,180139,180172,183264,1525,1004,602,9000,622,481,0,600,1966,3125,3092,1366,146.5122856,15.94655931,1,4,3,150,1,1,51,7,4,2.0
1,6,191,183267,184790,184790,185796,185796,186400,186432,192932,192932,193563,193596,193630,196722,1523,1006,604,6500,631,649,0,600,1787,3126,3092,1187,159.9701063,13.45782065,1,40,-20,160,-1,-1,49,20,40,1.0
1,6,192,196725,198246,198246,199253,199253,199884,199917,208417,208417,209036,209068,209101,212166,1521,1007,631,8500,619,616,0,600,1806,3098,3065,1206,175.413793,15.44368668,1,2,3,150,1,1,51,5,2,2.0
1,6,193,212168,213689,213689,214692,214692,215312,215344,222344,222344,222944,222978,223011,226124,1521,1003,620,7000,600,402,0,600,2054,3146,3113,1454,189.3717247,13.9579317,1,7,7,180,1,1,51,14,7,2.0
1,6,194,226127,227644,227644,228645,228645,229269,229301,235301,235301,235919,235951,235985,239084,1517,1001,624,6000,618,358,0,600,2082,3133,3099,1482,202.3315937,12.95986908,1,2,5,190,1,1,51,7,2,2.0
1,6,195,239087,240609,240609,241617,241617,242218,242251,251251,251251,251870,251902,251935,255033,1522,1008,601,9000,619,618,0,600,1832,3131,3098,1232,218.28049,15.94889629,1,14,-7,170,-1,-1,49,7,14,1.0
1,6,196,255036,256560,256560,257567,257567,258197,258230,266730,266730,267362,267394,267427,270498,1524,1007,630,8500,632,557,0,600,1850,3104,3071,1250,233.7459749,15.46548491,1,7,-2,160,-1,-1,49,5,7,1.0
1,6,197,270501,272026,272026,273033,273033,273636,273669,279669,279669,280300,280332,280365,283438,1525,1007,603,6000,631,1342,0,600,1092,3106,3073,492,246.6861899,12.94021497,1,8,-1,190,-1,-1,49,7,8,1.0
1,6,198,283441,284963,284963,285969,285969,286574,286606,293606,293606,294207,294239,294273,297399,1522,1006,605,7000,601,648,0,600,1818,3160,3126,1218,260.6469085,13.96071859,1,40,-20,150,-1,-1,49,20,40,1.0
1,6,199,297402,298925,298925,299932,299932,300538,300570,307070,307070,307694,307727,307760,310849,1523,1007,606,6500,624,999,0,600,1441,3122,3089,841,274.0965911,13.44968266,1,7,7,180,1,1,51,14,7,2.0
1,6,200,310852,312372,312372,313379,313379,313983,314016,321516,321516,322120,322153,322186,325286,1520,1007,604,7500,604,362,0,600,2103,3133,3100,1503,288.533872,14.43728086,1,7,7,210,1,1,51,14,7,2.0
1,6,201,325289,326812,326812,327816,327816,328420,328452,336452,336452,337054,337086,337120,340234,1523,1004,604,8000,602,634,0,600,1833,3148,3114,1233,303.481797,14.94792503,1,14,6,170,1,1,51,20,14,2.0
1,6,202,340237,341761,341761,342768,342768,343370,343402,350902,350902,351504,351537,351571,354695,1524,1007,602,7500,602,934,0,600,1531,3158,3124,931,317.9423305,14.46053341,1,20,-10,170,-1,-1,49,10,20,1.0
1,6,203,354698,356222,356222,357232,357232,357834,357866,366866,366866,367466,367499,367533,370636,1524,1010,602,9000,600,1464,0,600,1000,3137,3103,400,333.883718,15.94138752,1,20,-6,160,-1,-1,49,14,20,1.0
1,6,204,370639,372157,372157,373159,373159,373759,373791,381791,381791,382423,382456,382490,385582,1518,1002,600,8000,632,483,0,600,1965,3126,3092,1365,348.8290318,14.94531383,1,14,-4,200,-1,-1,49,10,14,1.0
1,6,205,385585,387106,387106,388111,388111,388720,388752,395252,395252,395853,395886,395920,399045,1521,1005,609,6500,601,1198,0,600,1266,3159,3125,666,362.2924696,13.46343783,1,20,8,200,1,1,51,28,20,2.0
1,6,206,399048,400574,400574,401581,401581,402188,402220,409220,409220,409820,409852,409887,413009,1526,1007,607,7000,600,1425,0,600,1035,3157,3122,435,376.2564989,13.96402923,1,21,-1,180,-1,-1,49,20,21,1.0
1,6,207,413012,414535,414535,415542,415542,416175,416207,422207,422207,422840,422872,422905,425953,1523,1007,633,6000,633,989,0,600,1415,3081,3048,815,389.1999389,12.94344002,1,6,-1,160,-1,-1,49,5,6,1.0
1,6,208,425956,427479,427479,428485,428485,429092,429124,437624,437624,438256,438289,438322,441418,1523,1006,607,8500,632,585,0,600,1847,3129,3096,1247,404.6655895,15.46565065,1,10,18,170,1,1,51,28,10,2.0
1,6,209,441421,442945,442945,443951,443951,444553,444585,451085,451085,451685,451717,451750,454872,1524,1006,602,6500,600,1002,0,600,1466,3155,3122,866,418.1196671,13.45407757,1,14,-9,150,-1,-1,49,5,14,1.0
1,6,210,454875,456399,456399,457406,457406,458010,458043,466043,466043,466643,466675,466708,469824,1524,1007,604,8000,600,1644,0,600,821,3149,3116,221,433.0714464,14.95177931,0,14,6,160,1,-1,49,20,14,1.0
1,6,211,469827,471353,471353,472355,472355,472960,472992,478992,478992,479592,479625,479658,482771,1526,1002,605,6000,600,1347,0,600,1120,3146,3113,520,446.0180696,12.9466232,1,14,-7,150,-1,-1,49,7,14,1.0
1,6,212,482773,484301,484301,485309,485309,485914,485947,494947,494947,495550,495582,495617,498721,1528,1008,605,9000,603,783,0,600,1673,3139,3104,1073,461.9689871,15.95091745,1,10,18,170,1,1,51,28,10,2.0
1,6,213,498724,500250,500250,501257,501257,501860,501892,509392,509392,510014,510046,510080,513179,1526,1007,603,7500,622,424,0,600,2018,3133,3099,1418,476.4264416,14.45745451,1,4,6,170,1,1,51,10,4,2.0
1,6,214,513182,514707,514707,515716,515716,516321,516354,523354,523354,523986,524020,524054,527123,1525,1009,605,7000,632,749,0,600,1680,3103,3069,1080,490.3699226,13.94348101,1,40,-26,200,-1,-1,49,14,40,1.0
1,6,215,527126,528649,528649,529655,529655,530260,530292,538792,538792,539393,539426,539459,542569,1523,1006,605,8500,601,1179,0,600,1286,3143,3110,686,505.8165073,15.44658477,1,40,-12,170,-1,-1,49,28,40,1.0
1,6,216,542572,544092,544092,545097,545097,545704,545736,551736,551736,552337,552369,552402,555531,1520,1005,607,6000,601,1653,0,600,814,3162,3129,214,518.7783904,12.96188301,0,14,6,150,1,-1,49,20,14,1.0
2,1,1,65423,66947,66947,67977,67977,68583,68616,77616,77616,78216,78248,78284,81398,1524,1030,606,9000,600,1692,0,600,748,3150,3114,148,16.01074227,16.01074227,1,28,-14,170,-1,-1,49,14,28,1.0
2,1,2,81446,82974,82974,83989,83989,84616,84648,91648,91648,92280,92314,92347,95406,1528,1015,627,7000,632,711,0,600,1687,3092,3059,1087,29.97213555,13.96139328,1,7,7,180,1,1,51,14,7,2.0
2,1,3,95409,96931,96931,97937,97937,98542,98575,106575,106575,107206,107240,107274,110349,1522,1006,605,8000,631,957,0,600,1479,3109,3075,879,44.9150123,14.94287675,1,20,-6,150,-1,-1,49,14,20,1.0
2,1,4,110352,111872,111872,112878,112878,113496,113528,121028,121028,121647,121680,121713,124804,1520,1006,618,7500,619,419,0,600,2018,3124,3091,1418,59.36884196,14.45382966,1,3,2,150,1,1,51,5,3,2.0
2,1,5,124806,126330,126330,127335,127335,127952,127984,136484,136484,137116,137150,137183,140265,1524,1005,617,8500,632,477,0,600,1945,3115,3082,1345,74.83032293,15.46148097,1,10,-3,190,-1,-1,49,7,10,1.0
2,1,6,140268,141790,141790,142797,142797,143403,143436,149936,149936,150538,150570,150604,153721,1522,1007,606,6500,602,1415,0,600,1048,3151,3117,448,88.28569823,13.45537529,0,21,-1,190,-1,1,51,20,21,2.0
2,1,7,153723,155246,155246,156249,156249,156854,156886,162886,162886,163488,163521,163555,166671,1523,1003,605,6000,602,864,0,600,1603,3150,3116,1003,101.2361178,12.95041957,1,14,-4,180,-1,-1,49,10,14,1.0
2,1,8,166674,168197,168197,169202,169202,169827,169859,178859,178859,179472,179504,179538,182622,1523,1005,625,9000,613,769,0,600,1665,3118,3084,1065,117.1873682,15.9512504,1,3,2,210,1,1,51,5,3,2.0
2,1,9,182625,184149,184149,185156,185156,185777,185810,192310,192310,192925,192957,192991,196077,1524,1007,621,6500,615,1094,0,600,1339,3120,3086,739,130.6428191,13.45545093,1,6,-1,170,-1,-1,49,5,6,1.0
2,1,10,196080,197603,197603,198609,198609,199217,199250,205250,205250,205851,205883,205917,209014,1523,1006,608,6000,601,104,0,600,2358,3131,3097,1758,143.57935,12.93653089,1,28,-18,190,-1,-1,49,10,28,1.0
2,1,11,209016,210543,210543,211547,211547,212153,212185,219685,219685,220286,220318,220351,223446,1527,1004,606,7500,601,679,0,600,1783,3128,3095,1183,158.0111859,14.43183584,1,28,-8,190,-1,-1,49,20,28,1.0
2,1,12,223448,224976,224976,225977,225977,226597,226630,235130,235130,235749,235782,235815,238881,1528,1001,620,8500,619,651,0,600,1781,3099,3066,1181,173.4464068,15.43522092,1,4,3,200,1,1,51,7,4,2.0
2,1,13,238884,240410,240410,241411,241411,242032,242065,250065,250065,250697,250730,250763,253830,1526,1001,621,8000,632,723,0,600,1697,3100,3067,1097,188.3954416,14.94903486,1,10,-3,170,-1,-1,49,7,10,1.0
2,1,14,253833,255360,255360,256366,256366,256973,257005,264005,264005,264638,264671,264704,267764,1527,1006,607,7000,633,519,0,600,1908,3093,3060,1308,202.3288023,13.93336068,1,14,14,170,1,1,51,28,14,2.0
2,1,15,267766,269286,269286,270292,270292,270898,270930,278930,278930,279560,279593,279626,282710,1520,1006,606,8000,630,212,0,600,2226,3117,3084,1626,217.2752386,14.94643631,1,10,10,150,1,1,51,20,10,2.0
2,1,16,282713,284236,284236,285244,285244,285850,285882,291882,291882,292514,292547,292580,295669,1523,1008,606,6000,632,577,0,600,1854,3122,3089,1254,230.2341593,12.95892069,1,10,18,210,1,1,51,28,10,2.0
2,1,17,295672,297195,297195,298201,298201,298833,298865,305365,305365,305981,306013,306047,309117,1523,1006,632,6500,616,463,0,600,1960,3104,3070,1360,243.683098,13.44893873,1,2,5,190,1,1,51,7,2,2.0
2,1,18,309120,310640,310640,311646,311646,312250,312283,319783,319783,320402,320435,320469,323552,1520,1006,604,7500,619,307,0,600,2144,3117,3083,1544,258.1169749,14.43387689,1,14,14,180,1,1,51,28,14,2.0
2,1,19,323555,325080,325080,326087,326087,326692,326724,335724,335724,336356,336388,336422,339505,1525,1007,605,9000,632,179,0,600,2252,3117,3083,1652,274.0695733,15.95259834,1,7,7,150,1,1,51,14,7,2.0
2,1,20,339508,341032,341032,342039,342039,342664,342697,349697,349697,350316,350349,350382,353447,1524,1007,625,7000,619,34,0,600,2391,3098,3065,1791,288.0125434,13.94297017,1,3,2,200,1,1,51,5,3,2.0
2,1,21,353450,354975,354975,355981,355981,356584,356616,365116,365116,365717,365750,365783,368887,1525,1006,603,8500,601,718,0,600,1747,3137,3104,1147,303.452325,15.43978157,1,28,-18,190,-1,-1,49,10,28,1.0
2,1,22,368890,370403,370403,371404,371404,372035,372068,378068,378068,378684,378717,378751,381847,1513,1001,631,6000,616,326,0,600,2113,3130,3096,1513,316.4119334,12.95960838,1,4,3,190,1,1,51,7,4,2.0
2,1,23,381850,383371,383371,384377,384377,384986,385019,391519,391519,392140,392172,392205,395302,1521,1006,609,6500,621,163,0,600,2280,3130,3097,1680,329.8669112,13.45497781,1,79,-51,200,-1,-1,49,28,79,1.0
2,1,24,395305,396827,396827,397832,397832,398436,398470,405470,405470,406071,406103,406137,409241,1522,1005,604,7000,601,1078,0,600,1390,3138,3104,790,343.80567,13.93875878,1,28,-8,170,-1,-1,49,20,28,1.0
2,1,25,409243,410770,410770,411775,411775,412391,412423,420923,420923,421545,421577,421611,424696,1527,1005,616,8500,622,1059,0,600,1371,3119,3085,771,359.2608976,15.45522763,1,6,-1,180,-1,-1,49,5,6,1.0
2,1,26,424699,426223,426223,427230,427230,427832,427864,435864,435864,436486,436519,436553,439631,1524,1007,602,8000,622,403,0,600,2042,3112,3078,1442,374.1970316,14.93613401,1,7,7,210,1,1,51,14,7,2.0
2,1,27,439635,441157,441157,442161,442161,442793,442826,450326,450326,450943,450975,451009,454083,1522,1004,632,7500,617,598,0,600,1827,3108,3074,1227,388.648245,14.45121333,1,2,5,170,1,1,51,7,2,2.0
2,1,28,454086,455608,455608,456613,456613,457218,457250,466250,466250,466851,466884,466917,470019,1522,1005,605,9000,601,718,0,600,1749,3135,3102,1149,404.5838902,15.93564522,1,28,-8,160,-1,-1,49,20,28,1.0
2,1,29,470022,471544,471544,472547,472547,473153,473186,479686,479686,480287,480320,480354,483471,1522,1003,606,6500,601,376,0,600,2092,3151,3117,1492,418.0359786,13.45208846,1,10,4,170,1,1,51,14,10,2.0
2,1,30,483474,485000,485000,486006,486006,486612,486644,494144,494144,494774,494807,494841,497930,1526,1006,606,7500,630,220,0,600,2212,3123,3089,1612,432.4950199,14.45904123,1,14,14,180,1,1,51,28,14,2.0
2,1,31,497933,499456,499456,500464,500464,501093,501125,510125,510125,510728,510760,510794,513880,1523,1008,629,9000,603,637,0,600,1800,3120,3086,1200,448.4451224,15.95010255,1,14,-4,190,-1,-1,49,10,14,1.0
2,1,32,513883,515408,515408,516412,516412,517018,517049,525049,525049,525650,525683,525716,528837,1525,1004,606,8000,601,669,0,600,1795,3154,3121,1195,463.4016618,14.95653941,1,20,-10,200,-1,-1,49,10,20,1.0
2,1,33,528840,530366,530366,531375,531375,532004,532036,539036,539036,539659,539692,539725,542776,1526,1009,629,7000,623,1704,0,600,709,3084,3051,109,477.3404393,13.93877747,1,6,-1,180,-1,-1,49,5,6,1.0
2,1,34,542779,544299,544299,545302,545302,545907,545940,551940,551940,552573,552605,552638,555733,1520,1003,605,6000,633,325,0,600,2114,3128,3095,1514,490.2982016,12.9577623,1,20,8,200,1,1,51,28,20,2.0
2,1,35,555736,557255,557255,558257,558257,558864,558897,567397,567397,567997,568029,568063,571169,1519,1002,607,8500,600,529,0,600,1943,3140,3106,1343,505.7332658,15.43506421,1,28,-8,210,-1,-1,49,20,28,1.0
2,1,36,571171,572697,572697,573702,573702,574307,574341,582841,582841,583442,583474,583507,586619,1526,1005,605,8500,601,568,0,600,1895,3145,3112,1295,521.1837237,15.45045784,1,28,-18,210,-1,-1,49,10,28,1.0
2,2,37,39673,41193,41193,42199,42199,42806,42839,49339,49339,49939,49971,50004,53130,1520,1006,607,6500,600,322,0,600,2145,3159,3126,1545,13.45780901,13.45780901,1,13,1,160,1,1,51,14,13,2.0
2,2,38,53133,54656,54656,55658,55658,56263,56295,65295,65295,65911,65943,65977,69072,1523,1002,605,9000,616,491,0,600,1963,3129,3095,1363,29.40016954,15.94236053,1,5,5,210,1,1,51,10,5,2.0
2,2,39,69074,70598,70598,71602,71602,72204,72237,79737,79737,80359,80391,80424,83507,1524,1004,602,7500,622,278,0,600,2170,3116,3083,1570,43.83496977,14.43480023,1,10,10,210,1,1,51,20,10,2.0
2,2,40,83510,85032,85032,86038,86038,86645,86678,92678,92678,93309,93342,93375,96464,1522,1006,607,6000,631,254,0,600,2180,3122,3089,1580,56.79263443,12.95766466,1,10,18,150,1,1,51,28,10,2.0
2,2,41,96467,97990,97990,98998,98998,99602,99635,107635,107635,108267,108299,108333,111416,1523,1008,604,8000,632,2255,0,600,178,3117,3083,-422,71.7444366,14.95180217,1,14,14,150,1,1,51,28,14,2.0
2,2,42,111419,112937,112937,113943,113943,114568,114600,121600,121600,122200,122233,122267,125361,1518,1006,625,7000,600,385,0,600,2066,3128,3094,1466,85.68905817,13.94462157,1,10,-5,200,-1,-1,49,5,10,1.0
2,2,43,125364,126887,126887,127894,127894,128517,128549,137049,137049,137669,137701,137734,140801,1523,1007,623,8500,620,908,0,600,1519,3100,3067,919,101.1293412,15.44028302,1,4,1,190,1,1,51,5,4,2.0
2,2,44,140804,142327,142327,143332,143332,143935,143968,151468,151468,152098,152131,152165,155239,1523,1005,603,7500,630,138,0,600,2301,3108,3074,1701,115.5667969,14.43745574,1,7,7,160,1,1,51,14,7,2.0
2,2,45,155242,156765,156765,157769,157769,158375,158408,167408,167408,168010,168042,168075,171181,1523,1004,606,9000,602,794,0,600,1671,3139,3106,1071,131.5086322,15.94183528,1,13,1,160,1,1,51,14,13,2.0
2,2,46,171183,172702,172702,173707,173707,174313,174346,180346,180346,180947,180979,181012,184129,1519,1005,606,6000,601,832,0,600,1637,3150,3117,1037,144.4575972,12.94896495,0,27,1,180,1,-1,49,28,27,1.0
2,2,47,184132,185657,185657,186660,186660,187266,187299,194299,194299,194916,194948,194982,198070,1525,1003,606,7000,617,478,0,600,1971,3122,3088,1371,158.398171,13.94057382,1,56,-28,180,-1,-1,49,28,56,1.0
2,2,48,198072,199595,199595,200599,200599,201201,201234,207734,207734,208334,208367,208401,211520,1523,1004,602,6500,600,225,0,600,2246,3153,3119,1646,171.8482259,13.45005494,1,40,-26,160,-1,-1,49,14,40,1.0
2,2,49,211523,213047,213047,214051,214051,214652,214685,223185,223185,223817,223849,223882,226981,1524,1004,601,8500,632,491,0,600,1948,3132,3099,1348,187.3088691,15.46064322,1,28,-18,160,-1,-1,49,10,28,1.0
2,2,50,226984,228502,228502,229510,229510,230113,230146,238146,238146,238762,238795,238829,241928,1518,1008,603,8000,616,587,0,600,1868,3133,3099,1268,202.2555092,14.94664002,1,5,5,170,1,1,51,10,5,2.0
2,2,51,241931,243452,243452,244460,244460,245088,245120,252120,252120,252734,252767,252801,255867,1521,1008,628,7000,614,658,0,600,1771,3100,3066,1171,216.195222,13.93971286,1,2,5,200,1,1,51,7,2,2.0
2,2,52,255870,257392,257392,258397,258397,259027,259059,268059,268059,268660,268692,268725,271826,1522,1005,630,9000,601,882,0,600,1560,3134,3101,960,232.1538956,15.95867358,1,10,-3,190,-1,-1,49,7,10,1.0
2,2,53,271829,273350,273350,274354,274354,274981,275013,282513,282513,283145,283179,283212,286286,1521,1004,627,7500,632,564,0,600,1852,3107,3074,1252,246.613774,14.45987839,1,10,-3,190,-1,-1,49,7,10,1.0
2,2,54,286289,287811,287811,288819,288819,289445,289478,297478,297478,298092,298124,298158,301251,1522,1008,626,8000,614,69,0,600,2361,3127,3093,1761,261.5787368,14.96496279,1,2,3,150,1,1,51,5,2,2.0
2,2,55,301254,302772,302772,303777,303777,304380,304412,312912,312912,313514,313546,313580,316698,1518,1005,603,8500,602,411,0,600,2061,3152,3118,1461,277.0260151,15.44727829,0,28,-8,190,-1,1,51,20,28,2.0
2,2,56,316701,318227,318227,319234,319234,319841,319873,325873,325873,326503,326536,326569,329659,1526,1007,607,6000,630,254,0,600,2176,3123,3090,1576,289.9870976,12.96108259,1,10,18,200,1,1,51,28,10,2.0
2,2,57,329662,331183,331183,332190,332190,332797,332831,339331,339331,339933,339965,339998,343113,1521,1007,607,6500,602,311,0,600,2152,3148,3115,1552,303.4409466,13.45384895,1,20,-10,180,-1,-1,49,10,20,1.0
2,2,58,343116,344643,344643,345648,345648,346276,346308,352308,352308,352934,352967,353000,356074,1527,1005,628,6000,626,338,0,600,2076,3107,3074,1476,316.4021919,12.96124532,1,5,2,170,1,1,51,7,5,2.0
2,2,59,356077,357600,357600,358606,358606,359211,359243,367243,367243,367876,367909,367942,371025,1523,1006,605,8000,633,310,0,600,2123,3116,3083,1523,331.3523195,14.95012756,0,10,10,190,1,-1,49,20,10,1.0
2,2,60,371028,372555,372555,373560,373560,374183,374216,381216,381216,381832,381864,381896,384964,1527,1005,623,7000,616,815,0,600,1614,3100,3068,1014,345.2921131,13.93979362,1,7,-2,210,-1,-1,49,5,7,1.0
2,2,61,384967,386492,386492,387497,387497,388100,388133,397133,397133,397765,397798,397831,400927,1525,1005,603,9000,632,584,0,600,1851,3129,3096,1251,361.2545195,15.96240642,1,14,6,200,1,1,51,20,14,2.0
2,2,62,400930,402453,402453,403460,403460,404063,404095,411595,411595,412212,412244,412278,415380,1523,1007,603,7500,617,520,0,600,1930,3136,3102,1330,375.7079725,14.45345297,1,7,7,160,1,1,51,14,7,2.0
2,2,63,415383,416910,416910,417918,417918,418542,418574,425074,425074,425703,425736,425769,428842,1527,1008,624,6500,629,589,0,600,1823,3106,3073,1223,389.1694902,13.46151774,1,10,-5,190,-1,-1,49,5,10,1.0
2,2,64,428844,430372,430372,431380,431380,431980,432013,440513,440513,441145,441177,441211,444307,1528,1008,600,8500,632,548,0,600,1884,3130,3096,1284,404.6340796,15.46458941,1,14,-7,200,-1,-1,49,7,14,1.0
2,2,65,444309,445831,445831,446835,446835,447452,447484,454484,454484,455107,455139,455173,458269,1522,1004,617,7000,623,619,0,600,1815,3130,3096,1215,418.5969887,13.96290908,1,4,1,210,1,1,51,5,4,2.0
2,2,66,458272,459796,459796,460801,460801,461410,461444,468944,468944,469544,469577,469611,472733,1524,1005,609,7500,600,323,0,600,2139,3156,3122,1539,433.0597833,14.46279456,1,14,6,160,1,1,51,20,14,2.0
2,2,67,472734,474254,474254,475260,475260,475890,475922,481922,481922,482525,482557,482591,485683,1520,1006,630,6000,603,445,0,600,1996,3126,3092,1396,446.010214,12.95043072,1,10,-3,150,-1,-1,49,7,10,1.0
2,2,68,485686,487212,487212,488219,488219,488828,488861,497361,497361,497962,497995,498029,501146,1526,1007,609,8500,601,315,0,600,2142,3151,3117,1542,461.4726481,15.46243415,1,20,-6,180,-1,-1,49,14,20,1.0
2,2,69,501147,502671,502671,503677,503677,504284,504317,512317,512317,512918,512951,512985,516107,1524,1006,607,8000,601,1034,0,600,1428,3156,3122,828,476.4350603,14.96241215,1,40,-12,170,-1,-1,49,28,40,1.0
2,2,70,516111,517630,517630,518635,518635,519236,519269,528269,528269,528872,528904,528938,532044,1519,1005,601,9000,603,401,0,600,2071,3140,3106,1471,492.3712718,15.93621146,0,14,-4,160,-1,1,51,10,14,2.0
2,2,71,532047,533573,533573,534584,534584,535185,535217,541717,541717,542319,542351,542384,545503,1526,1011,601,6500,602,317,0,600,2143,3152,3119,1543,505.8302807,13.45900899,1,14,-4,190,-1,-1,49,10,14,1.0
2,2,72,545506,547030,547030,548035,548035,548641,548673,556673,556673,557290,557322,557356,560437,1524,1005,606,8000,617,311,0,600,2137,3115,3081,1537,520.7643653,14.93408452,1,57,-37,180,-1,-1,49,20,57,1.0
2,3,73,42487,44010,44010,45014,45014,45619,45652,54652,54652,55284,55318,55353,58429,1523,1004,605,9000,632,335,0,600,2101,3111,3076,1501,15.94358884,15.94358884,1,40,-20,210,-1,-1,49,20,40,1.0
2,3,74,58432,59953,59953,60958,60958,61566,61599,67599,67599,68229,68261,68295,71393,1521,1005,608,6000,630,586,0,600,1850,3132,3098,1250,28.90795736,12.96436852,1,7,13,160,1,1,51,20,7,2.0
2,3,75,71396,72916,72916,73920,73920,74522,74554,82054,82054,82657,82689,82723,85854,1520,1004,602,7500,603,206,0,600,2265,3165,3131,1665,43.36864458,14.46068721,1,28,-8,160,-1,-1,49,20,28,1.0
2,3,76,85857,87378,87378,88384,88384,89010,89044,97044,97044,97659,97691,97725,100790,1521,1006,626,8000,615,198,0,600,2234,3099,3065,1634,58.30432023,14.93567566,1,2,5,150,1,1,51,7,2,2.0
2,3,77,100792,102319,102319,103326,103326,103933,103966,110966,110966,111594,111626,111659,114732,1527,1007,607,7000,628,759,0,600,1672,3106,3073,1072,72.24671512,13.94239489,1,10,18,190,1,1,51,28,10,2.0
2,3,78,114734,116258,116258,117263,117263,117868,117901,126401,126401,127014,127046,127080,130186,1524,1005,605,8500,613,139,0,600,2314,3140,3106,1714,87.70051133,15.45379621,1,79,-51,180,-1,-1,49,28,79,1.0
2,3,79,130189,131714,131714,132717,132717,133321,133354,139854,139854,140454,140486,140520,143627,1525,1003,604,6500,600,657,0,600,1811,3141,3107,1211,101.1410794,13.4405681,0,20,-6,150,-1,1,51,14,20,2.0
2,3,80,143630,145152,145152,146155,146155,146771,146804,153804,153804,154425,154457,154490,157586,1522,1003,616,7000,621,680,0,600,1758,3129,3096,1158,115.1000164,13.95893697,1,7,-2,210,-1,-1,49,5,7,1.0
2,3,81,157588,159113,159113,160114,160114,160720,160753,168253,168253,168886,168919,168952,172026,1525,1001,606,7500,633,923,0,600,1512,3107,3074,912,129.5403841,14.4403677,1,10,18,190,1,1,51,28,10,2.0
2,3,82,172029,173547,173547,174554,174554,175161,175195,181195,181195,181795,181828,181862,184971,1518,1007,607,6000,600,212,0,600,2256,3143,3109,1656,142.4854474,12.94506335,1,10,4,160,1,1,51,14,10,2.0
2,3,83,184974,186493,186493,187497,187497,188102,188134,194634,194634,195236,195269,195303,198437,1519,1004,605,6500,602,50,0,600,2420,3168,3134,1820,155.9516494,13.46620194,1,40,-26,170,-1,-1,49,14,40,1.0
2,3,84,198440,199963,199963,200968,200968,201597,201629,210629,210629,211258,211290,211325,214387,1523,1005,629,9000,629,454,0,600,1960,3097,3062,1360,171.9008566,15.94920724,1,10,-3,200,-1,-1,49,7,10,1.0
2,3,85,214390,215914,215914,216922,216922,217527,217560,225560,225560,226184,226216,226250,229326,1524,1008,605,8000,624,1017,0,600,1422,3110,3076,822,186.8401376,14.93928102,1,7,3,170,1,1,51,10,7,2.0
2,3,86,229329,230852,230852,231858,231858,232463,232496,240996,240996,241628,241662,241696,244767,1523,1006,605,8500,632,145,0,600,2289,3105,3071,1689,202.2814269,15.44128923,1,20,-6,180,-1,-1,49,14,20,1.0
2,3,87,244770,246289,246289,247292,247292,247924,247957,254457,254457,255090,255123,255156,258235,1519,1003,632,6500,633,892,0,600,1521,3112,3079,921,215.749443,13.46801608,0,10,-3,170,-1,1,51,7,10,2.0
2,3,88,258238,259762,259762,260766,260766,261369,261404,268404,268404,269004,269036,269070,272203,1524,1004,603,7000,600,621,0,600,1848,3167,3133,1248,229.7177776,13.96833461,1,20,8,190,1,1,51,28,20,2.0
2,3,89,272206,273729,273729,274735,274735,275352,275384,283384,283384,284015,284048,284081,287143,1523,1006,617,8000,631,291,0,600,2132,3095,3062,1532,244.656898,14.9391204,1,20,-6,160,-1,-1,49,14,20,1.0
2,3,90,287146,288668,288668,289677,289677,290282,290314,297814,297814,298414,298446,298480,301582,1522,1009,605,7500,600,466,0,600,1998,3136,3102,1398,259.0960175,14.4391195,0,28,-8,150,-1,1,51,20,28,2.0
2,3,91,301584,303102,303102,304107,304107,304710,304742,310742,310742,311363,311395,311429,314538,1518,1005,603,6000,621,630,0,600,1823,3143,3109,1223,272.0519439,12.95592647,1,5,5,170,1,1,51,10,5,2.0
2,3,92,314541,316062,316062,317070,317070,317677,317709,326709,326709,327331,327364,327397,330489,1521,1008,607,9000,622,322,0,600,2120,3125,3092,1520,288.0030819,15.95113799,1,5,5,210,1,1,51,10,5,2.0
2,3,93,330492,332017,332017,333023,333023,333625,333658,342158,342158,342778,342811,342844,345929,1525,1006,602,8500,620,251,0,600,2196,3118,3085,1596,303.4426128,15.43953084,1,4,6,200,1,1,51,10,4,2.0
2,3,94,345932,347451,347451,348456,348456,349060,349093,356093,356093,356725,356758,356791,359870,1519,1005,604,7000,632,409,0,600,2031,3112,3079,1431,317.3844028,13.94179008,1,15,-1,160,-1,-1,49,14,15,1.0
2,3,95,359873,361396,361396,362404,362404,363005,363037,372037,372037,372663,372695,372728,375804,1523,1008,601,9000,626,565,0,600,1877,3109,3076,1277,333.3177274,15.93332451,1,79,-51,160,-1,-1,49,28,79,1.0
2,3,96,375807,377331,377331,378336,378336,378946,378978,386978,386978,387586,387619,387652,390767,1524,1005,610,8000,608,183,0,600,2270,3148,3115,1670,348.2808293,14.96310194,1,40,-12,180,-1,-1,49,28,40,1.0
2,3,97,390770,392294,392294,393301,393301,393930,393963,400463,400463,401085,401118,401151,404211,1524,1007,629,6500,622,648,0,600,1770,3093,3060,1170,361.7253776,13.44454834,1,6,-1,160,-1,-1,49,5,6,1.0
2,3,98,404214,405737,405737,406743,406743,407349,407381,413381,413381,413982,414015,414049,417167,1523,1006,606,6000,601,865,0,600,1599,3152,3118,999,374.681142,12.95576434,1,10,10,210,1,1,51,20,10,2.0
2,3,99,417170,418693,418693,419703,419703,420329,420362,428862,428862,429476,429508,429541,432618,1523,1010,626,8500,614,564,0,600,1863,3110,3077,1263,390.1321504,15.45100841,1,2,3,160,1,1,51,5,2,2.0
2,3,100,432621,434149,434149,435151,435152,435779,435811,443311,443311,443931,443964,443998,447065,1528,1002,627,7500,620,1985,0,600,438,3101,3067,-162,404.5786452,14.44649477,1,6,-1,190,-1,-1,49,5,6,1.0
2,3,101,447066,448589,448589,449593,449593,450213,450246,458246,458246,458869,458902,458936,462012,1523,1004,620,8000,623,466,0,600,1964,3110,3076,1364,419.525774,14.94712882,1,4,3,160,1,1,51,7,4,2.0
2,3,102,462015,463536,463536,464539,464539,465144,465177,471177,471177,471808,471840,471873,474965,1521,1003,605,6000,631,290,0,600,2150,3125,3092,1550,432.478476,12.95270201,1,11,-1,210,-1,-1,49,10,11,1.0
2,3,103,474968,476485,476485,477493,477493,478110,478142,484642,484642,485258,485292,485325,488429,1517,1008,617,6500,616,304,0,600,2138,3137,3104,1538,445.9425308,13.46405481,1,2,5,190,1,1,51,7,2,2.0
2,3,104,488431,489954,489954,490960,490960,491578,491611,499111,499111,499736,499769,499802,502880,1523,1006,618,7500,625,796,0,600,1632,3111,3078,1032,460.3941594,14.45162859,1,4,1,200,1,1,51,5,4,2.0
2,3,105,502883,504406,504406,505412,505412,506016,506048,513048,513048,513669,513702,513736,516844,1523,1006,604,7000,621,400,0,600,2046,3142,3108,1446,474.3575862,13.9634268,1,5,5,190,1,1,51,10,5,2.0
2,3,106,516847,518375,518375,519381,519381,519988,520020,528520,528520,529120,529152,529186,532309,1528,1006,607,8500,600,351,0,600,2108,3157,3123,1508,489.822432,15.46484586,1,40,-20,180,-1,-1,49,20,40,1.0
2,3,107,532312,533838,533838,534847,534847,535475,535507,544507,544507,545121,545153,545186,548269,1526,1009,628,9000,614,896,0,600,1527,3116,3083,927,505.7824153,15.95998326,1,8,-1,150,-1,-1,49,7,8,1.0
2,3,108,548272,549796,549796,550800,550800,551419,551451,558951,558951,559568,559601,559634,562726,1524,1004,619,7500,617,30,0,600,2406,3125,3092,1806,520.2395475,14.45713217,1,2,3,180,1,1,51,5,2,2.0
2,4,109,48862,50362,50362,51392,51392,52018,52051,60551,60551,61154,61187,61222,64309,1500,1030,626,8500,603,395,0,600,2046,3122,3087,1446,15.47793596,15.47793596,1,14,6,180,1,1,51,20,14,2.0
2,4,110,64358,65887,65887,66902,66902,67507,67539,73539,73539,74160,74193,74227,77316,1529,1015,605,6000,621,804,0,600,1626,3123,3089,1026,28.4419968,12.96406084,1,5,9,190,1,1,51,14,5,2.0
2,4,111,77325,78845,78845,79850,79850,80480,80512,87012,87012,87640,87673,87706,90766,1520,1005,630,6500,628,682,0,600,1735,3093,3060,1135,41.88601206,13.44401525,1,4,3,210,1,1,51,7,4,2.0
2,4,112,90769,92293,92293,93295,93295,93918,93950,101450,101450,102081,102114,102148,105228,1524,1002,623,7500,631,244,0,600,2176,3114,3080,1576,56.34808488,14.46207283,1,20,-6,160,-1,-1,49,14,20,1.0
2,4,113,105230,106753,106753,107756,107756,108380,108412,117412,117412,118032,118065,118098,121179,1523,1003,624,9000,620,307,0,600,2123,3114,3081,1523,72.29962789,15.95154301,1,5,5,190,1,1,51,10,5,2.0
2,4,114,121182,122703,122703,123710,123710,124315,124348,131348,131348,131981,132013,132047,135134,1521,1007,605,7000,633,51,0,600,2383,3121,3087,1783,86.25329362,13.95366573,0,21,-1,170,-1,1,51,20,21,2.0
2,4,115,135136,136659,136659,137663,137663,138267,138300,146300,146300,146918,146951,146984,150087,1523,1004,604,8000,618,305,0,600,2146,3136,3103,1546,101.2074406,14.95414699,1,4,6,160,1,1,51,10,4,2.0
2,4,116,150090,151609,151609,152615,152615,153218,153250,161250,161250,161850,161882,161916,165041,1519,1006,603,8000,600,970,0,600,1502,3159,3125,902,116.1612796,14.953839,1,28,-14,150,-1,-1,49,14,28,1.0
2,4,117,165044,166567,166567,167571,167571,168180,168212,174212,174212,174843,174876,174909,177982,1523,1004,609,6000,631,269,0,600,2164,3106,3073,1564,129.1026152,12.94133564,1,10,10,180,1,1,51,20,10,2.0
2,4,118,177985,179508,179508,180511,180511,181128,181160,187660,187660,188283,188316,188351,191425,1523,1003,617,6500,623,861,0,600,1573,3109,3074,973,142.5448311,13.44221588,1,5,2,160,1,1,51,7,5,2.0
2,4,119,191428,192948,192948,193976,193976,194592,194625,202125,202125,202749,202781,202814,205873,1520,1028,616,7500,624,840,0,600,1572,3092,3059,972,156.9924825,14.44765136,1,5,2,200,1,1,51,7,5,2.0
2,4,120,205875,207395,207395,208398,208398,209025,209057,216057,216057,216657,216690,216723,219824,1520,1003,627,7000,600,329,0,600,2121,3134,3101,1521,170.9432429,13.9507604,1,14,-7,190,-1,-1,49,7,14,1.0
2,4,121,219826,221350,221350,222354,222354,222980,223012,232012,232012,232630,232663,232696,235773,1524,1004,626,9000,618,369,0,600,2059,3110,3077,1459,186.8928184,15.94957549,1,3,2,160,1,1,51,5,3,2.0
2,4,122,235776,237299,237299,238306,238306,238931,238963,247463,247463,248097,248129,248163,251208,1523,1007,625,8500,634,375,0,600,2036,3079,3045,1436,202.3277223,15.4349039,1,20,-13,210,-1,-1,49,7,20,1.0
2,4,123,251211,252728,252728,253733,253733,254337,254370,262870,262870,263474,263507,263541,266665,1517,1005,604,8500,604,901,0,600,1569,3158,3124,969,217.7853734,15.4576511,0,15,-1,160,-1,1,51,14,15,2.0
2,4,124,266668,268193,268193,269197,269197,269801,269835,277335,277335,277937,277970,278003,281122,1525,1004,604,7500,602,481,0,600,1984,3152,3119,1384,232.2418902,14.45651681,1,29,-1,190,-1,-1,49,28,29,1.0
2,4,125,281125,282641,282641,283642,283642,284248,284280,292280,292280,292880,292914,292947,296082,1516,1001,606,8000,600,335,0,600,2142,3168,3135,1542,247.2019672,14.96007698,1,28,-14,210,-1,-1,49,14,28,1.0
2,4,126,296084,297608,297608,298615,298615,299221,299253,305253,305253,305856,305889,305923,309040,1524,1007,606,6000,603,1383,0,600,1077,3151,3117,477,260.1603656,12.95839845,1,14,14,150,1,1,51,28,14,2.0
2,4,127,309043,310567,310567,311572,311572,312202,312235,321235,321235,321854,321887,321920,324982,1524,1005,630,9000,619,220,0,600,2202,3095,3062,1602,276.1016428,15.94127718,1,7,-2,210,-1,-1,49,5,7,1.0
2,4,128,324985,326507,326507,327513,327513,328117,328149,334649,334649,335270,335302,335335,338434,1522,1006,604,6500,621,333,0,600,2114,3132,3099,1514,289.5536677,13.45202487,1,5,9,160,1,1,51,14,5,2.0
2,4,129,338437,339958,339958,340960,340960,341563,341596,348596,348596,349197,349230,349263,352383,1521,1002,603,7000,601,312,0,600,2161,3153,3120,1561,303.5025078,13.94884019,1,14,14,200,1,1,51,28,14,2.0
2,4,130,352385,353913,353913,354918,354918,355545,355578,364578,364578,365191,365224,365257,368331,1528,1005,627,9000,613,139,0,600,2288,3107,3074,1688,319.450654,15.94814618,1,2,3,210,1,1,51,5,2,2.0
2,4,131,368334,369851,369851,370855,370855,371460,371492,378492,378492,379093,379126,379159,382280,1517,1004,605,7000,601,420,0,600,2053,3154,3121,1453,333.3996078,13.9489538,1,28,-8,150,-1,-1,49,20,28,1.0
2,4,132,382282,383806,383806,384811,384811,385441,385473,391973,391973,392595,392627,392660,395722,1524,1005,630,6500,622,553,0,600,1866,3095,3062,1266,346.8408259,13.44121811,1,5,2,160,1,1,51,7,5,2.0
2,4,133,395725,397245,397245,398248,398248,398856,398889,407389,407389,408012,408044,408077,411159,1520,1003,608,8500,623,313,0,600,2133,3115,3082,1533,362.2784821,15.43765614,1,5,5,210,1,1,51,10,5,2.0
2,4,134,411162,412682,412682,413683,413683,414289,414321,422321,422321,422947,422980,423013,426119,1520,1001,606,8000,626,403,0,600,2044,3139,3106,1444,377.2387164,14.96023428,0,21,-1,150,-1,1,51,20,21,2.0
2,4,135,426121,427641,427641,428644,428644,429249,429282,435282,435282,435901,435935,435968,439068,1520,1003,605,6000,619,136,0,600,2317,3133,3100,1717,390.1879679,12.94925153,1,79,-51,180,-1,-1,49,28,79,1.0
2,4,136,439071,440594,440594,441601,441601,442205,442238,449738,449738,450359,450392,450426,453515,1523,1007,604,7500,621,386,0,600,2059,3123,3089,1459,404.6349927,14.44702485,1,5,5,180,1,1,51,10,5,2.0
2,4,137,453518,455041,455041,456048,456048,456668,456701,463201,463201,463818,463850,463883,466972,1523,1007,620,6500,617,478,0,600,1955,3122,3089,1355,418.0915514,13.4565587,1,3,2,200,1,1,51,5,3,2.0
2,4,138,466974,468496,468496,469496,469496,470122,470155,477655,477655,478256,478288,478322,481408,1522,1000,626,7500,601,447,0,600,2004,3120,3086,1404,432.5273714,14.43582,1,14,-9,190,-1,-1,49,5,14,1.0
2,4,139,481411,482935,482935,483939,483939,484542,484575,491575,491575,492189,492221,492255,495361,1524,1004,603,7000,614,368,0,600,2087,3140,3106,1487,446.4799568,13.95258538,1,4,6,150,1,1,51,10,4,2.0
2,4,140,495363,496890,496890,497895,497895,498512,498544,507544,507544,508175,508208,508242,511295,1527,1005,617,9000,631,248,0,600,2172,3087,3053,1572,462.4144461,15.93448924,1,14,-9,150,-1,-1,49,5,14,1.0
2,4,141,511298,512820,512820,513827,513827,514433,514466,520466,520466,521068,521100,521134,524243,1522,1007,606,6000,602,366,0,600,2097,3143,3109,1497,475.3630193,12.94857319,1,20,8,190,1,1,51,28,20,2.0
2,4,142,524246,525769,525769,526776,526776,527381,527414,535914,535914,536536,536568,536602,539710,1523,1007,605,8500,622,269,0,600,2174,3142,3108,1574,490.8295225,15.46650329,1,79,-51,160,-1,-1,49,28,79,1.0
2,4,143,539713,541238,541238,542242,542242,542873,542905,550905,550905,551505,551538,551571,554659,1525,1004,631,8000,600,968,0,600,1472,3121,3088,872,505.7789567,14.94943415,1,10,10,200,1,1,51,20,10,2.0
2,4,144,554662,556187,556187,557192,557192,557795,557827,566327,566327,566945,566978,567012,570118,1525,1005,603,8500,618,272,0,600,2177,3140,3106,1577,521.2377798,15.45882305,1,5,5,200,1,1,51,10,5,2.0
2,5,145,40225,41749,41749,42753,42753,43353,43386,49386,49386,50018,50050,50084,53156,1524,1004,600,6000,632,76,0,600,2364,3106,3072,1764,12.93283241,12.93283241,1,10,4,170,1,1,51,14,10,2.0
2,5,146,53159,54682,54682,55685,55685,56290,56323,65324,65324,65942,65974,66007,69105,1523,1003,605,9001,618,326,0,600,2124,3131,3098,1524,28.87997177,15.94713936,1,5,5,200,1,1,51,10,5,2.0
2,5,147,69107,70627,70627,71631,71631,72234,72268,79768,79768,80396,80429,80465,83573,1520,1004,603,7500,628,462,0,600,1983,3144,3108,1383,43.34906427,14.4690925,1,7,3,160,1,1,51,10,7,2.0
2,5,148,83576,85097,85097,86104,86104,86737,86770,95270,95270,95890,95923,95956,99020,1521,1007,633,8500,620,650,0,600,1769,3097,3064,1169,58.79599359,15.44692932,1,4,1,170,1,1,51,5,4,2.0
2,5,149,99023,100540,100540,101545,101545,102150,102183,108683,108683,109283,109316,109349,112478,1517,1005,605,6500,600,490,0,600,1983,3162,3129,1383,72.25430164,13.45830804,1,14,6,150,1,1,51,20,14,2.0
2,5,150,112481,114005,114005,115007,115007,115613,115645,123645,123645,124254,124287,124321,127432,1524,1002,606,8000,609,855,0,600,1604,3145,3111,1004,87.20747164,14.95317,1,56,-28,210,-1,-1,49,28,56,1.0
2,5,151,127434,128958,128958,129967,129967,130576,130608,137608,137608,138242,138274,138309,141382,1524,1009,609,7000,634,720,0,600,1704,3108,3073,1104,101.1582748,13.95080319,0,14,-4,170,-1,1,51,10,14,2.0
2,5,152,141385,142908,142908,143915,143915,144515,144548,153048,153048,153680,153713,153747,156832,1523,1007,600,8500,632,413,0,600,2025,3119,3085,1425,116.6080369,15.44976202,1,14,-7,160,-1,-1,49,7,14,1.0
2,5,153,156835,158359,158359,159366,159366,159973,160005,167505,167505,168121,168153,168186,171285,1524,1007,607,7500,616,810,0,600,1636,3132,3099,1036,131.0610025,14.45296569,1,5,5,210,1,1,51,10,5,2.0
2,5,154,171288,172814,172814,173817,173817,174449,174482,180482,180482,181099,181132,181165,184222,1526,1003,632,6000,617,806,0,600,1616,3090,3057,1016,143.9979047,12.93690216,1,2,3,200,1,1,51,5,2,2.0
2,5,155,184225,185748,185748,186749,186749,187350,187382,195382,195382,195999,196032,196065,199159,1523,1001,601,8000,617,363,0,600,2095,3127,3094,1495,158.9346577,14.93675299,1,2,5,160,1,1,51,7,2,2.0
2,5,156,199161,200676,200676,201683,201683,202284,202318,211318,211318,211934,211966,211999,215118,1515,1007,601,9000,616,344,0,600,2117,3152,3119,1517,174.8944595,15.95980184,1,2,5,190,1,1,51,7,2,2.0
2,5,157,215121,216643,216643,217648,217648,218251,218284,225284,225284,225904,225936,225969,229067,1522,1005,603,7000,620,453,0,600,1997,3131,3098,1397,188.842399,13.94793945,1,4,6,200,1,1,51,10,4,2.0
2,5,158,229069,230592,230592,231597,231597,232201,232233,238733,238733,239342,239374,239408,242523,1523,1005,604,6500,609,283,0,600,2176,3149,3115,1576,202.2987299,13.45633088,1,40,-20,200,-1,-1,49,20,40,1.0
2,5,159,242525,244051,244051,245057,245057,245662,245694,252694,252694,253309,253342,253377,256461,1526,1006,605,7000,615,642,0,600,1806,3119,3084,1206,216.2374871,13.93875728,1,40,-12,210,-1,-1,49,28,40,1.0
2,5,160,256464,257987,257987,258994,258994,259599,259632,268132,268132,268761,268794,268829,271929,1523,1007,605,8500,629,396,0,600,2040,3135,3100,1440,231.7055683,15.46808117,1,7,7,150,1,1,51,14,7,2.0
2,5,161,271932,273453,273453,274456,274456,275064,275096,284096,284096,284728,284760,284795,287877,1521,1003,608,9000,632,411,0,600,2025,3117,3082,1425,247.6531971,15.94762876,1,28,-8,180,-1,-1,49,20,28,1.0
2,5,162,287880,289402,289402,290406,290406,291011,291043,298543,298543,299163,299196,299230,302316,1522,1004,605,7500,620,221,0,600,2228,3120,3086,1628,262.0919944,14.43879736,1,79,-51,200,-1,-1,49,28,79,1.0
2,5,163,302319,303837,303837,304844,304844,305446,305478,311978,311978,312594,312627,312661,315764,1518,1007,602,6500,616,297,0,600,2160,3137,3103,1560,275.539879,13.4478846,1,4,3,190,1,1,51,7,4,2.0
2,5,164,315767,317288,317288,318293,318293,318924,318957,326957,326957,327580,327613,327646,330699,1521,1005,631,8000,623,316,0,600,2104,3086,3053,1504,290.4752654,14.93538636,1,4,1,210,1,1,51,5,4,2.0
2,5,165,330702,332225,332225,333229,333229,333833,333866,339866,339866,340493,340526,340560,343639,1523,1004,604,6000,627,310,0,600,2132,3113,3079,1532,303.4148673,12.93960196,1,5,2,180,1,1,51,7,5,2.0
2,5,166,343642,345164,345164,346167,346168,346773,346807,355807,355807,356408,356442,356477,359610,1522,1003,605,9000,601,1042,0,600,1427,3168,3133,827,319.3860744,15.97120709,0,15,-1,210,-1,1,51,14,15,2.0
2,5,167,359613,361135,361135,362140,362140,362748,362781,370281,370281,370912,370945,370979,374066,1522,1005,608,7500,631,349,0,600,2085,3121,3087,1485,333.8414262,14.45535179,1,29,-1,160,-1,-1,49,28,29,1.0
2,5,168,374069,375593,375593,376599,376599,377223,377256,385256,385256,385877,385910,385943,389029,1524,1006,624,8000,621,512,0,600,1913,3119,3086,1313,348.8050941,14.96366788,1,4,6,180,1,1,51,10,4,2.0
2,5,169,389032,390560,390560,391570,391570,392200,392233,398733,398733,399334,399366,399401,402474,1528,1010,630,6500,601,237,0,600,2194,3108,3073,1594,362.249647,13.44455286,1,10,-5,190,-1,-1,49,5,10,1.0
2,5,170,402477,403997,403997,405001,405001,405607,405639,414139,414139,414772,414806,414840,417939,1520,1004,606,8500,633,585,0,600,1852,3133,3099,1252,377.714805,15.46515806,0,10,10,180,1,-1,49,20,10,1.0
2,5,171,417942,419467,419467,420470,420470,421075,421107,427107,427107,427740,427774,427808,430905,1525,1003,605,6000,633,356,0,600,2078,3131,3097,1478,390.6805468,12.96574178,1,20,-6,150,-1,-1,49,14,20,1.0
2,5,172,430908,432434,432434,433438,433438,434044,434077,441077,441077,441691,441723,441756,444862,1526,1004,606,7000,614,593,0,600,1857,3139,3106,1257,404.6376009,13.95705412,1,3,2,170,1,1,51,5,3,2.0
2,5,173,444865,446389,446389,447395,447395,447999,448032,454532,454532,455134,455167,455201,458303,1524,1006,604,6500,602,302,0,600,2162,3136,3102,1562,418.0785994,13.44099843,1,28,-14,190,-1,-1,49,14,28,1.0
2,5,174,458306,459828,459828,460835,460835,461441,461473,469973,469973,470605,470638,470673,473758,1522,1007,606,8500,632,281,0,600,2152,3120,3085,1552,433.5328169,15.4542175,0,21,-1,150,-1,1,51,20,21,2.0
2,5,175,473761,475280,475280,476284,476284,476913,476945,482945,482945,483561,483594,483627,486700,1519,1004,629,6000,616,464,0,600,1968,3106,3073,1368,446.4760793,12.94326248,1,3,2,200,1,1,51,5,3,2.0
2,5,176,486703,488225,488225,489228,489228,489833,489866,497866,497866,498488,498520,498554,501645,1522,1003,605,8000,622,289,0,600,2159,3125,3091,1559,461.4200834,14.9440041,1,14,14,170,1,1,51,28,14,2.0
2,5,177,501647,503167,503167,504173,504173,504780,504813,511813,511813,512434,512467,512501,515590,1520,1006,607,7000,621,380,0,600,2066,3123,3089,1466,475.3654994,13.94541593,1,7,7,180,1,1,51,14,7,2.0
2,5,178,515592,517116,517116,518121,518121,518722,518755,526255,526255,526856,526888,526922,530042,1524,1005,601,7500,601,286,0,600,2183,3154,3120,1583,489.8173558,14.45185641,1,10,18,190,1,1,51,28,10,2.0
2,5,179,530045,531569,531569,532574,532574,533179,533213,542213,542213,542815,542847,542880,546000,1524,1005,605,9000,602,477,0,600,1987,3153,3120,1387,505.7754589,15.95810313,1,40,-20,200,-1,-1,49,20,40,1.0
2,5,180,546003,547533,547533,548539,548539,549143,549175,557675,557675,558276,558310,558345,561461,1530,1006,604,8500,601,1022,0,600,1437,3151,3116,837,521.2367072,15.46124833,1,14,-7,200,-1,-1,49,7,14,1.0
2,6,181,42074,43594,43594,44597,44597,45201,45233,51233,51233,51867,51899,51935,55011,1520,1003,604,6000,634,632,0,600,1807,3112,3076,1207,12.93843212,12.93843212,0,29,-1,190,-1,1,51,28,29,2.0
2,6,182,55014,56536,56536,57538,57538,58141,58174,64674,64674,65277,65309,65342,68471,1522,1002,603,6500,603,199,0,600,2271,3162,3129,1671,26.39832346,13.45989134,1,28,-18,150,-1,-1,49,10,28,1.0
2,6,183,68473,69998,69998,71002,71002,71632,71664,80664,80664,81286,81318,81351,84414,1525,1004,630,9000,622,874,0,600,1545,3096,3063,945,42.34131442,15.94299096,1,6,-1,200,-1,-1,49,5,6,1.0
2,6,184,84416,85937,85937,86941,86941,87543,87576,94576,94576,95179,95212,95246,98352,1521,1004,602,7000,603,502,0,600,1968,3140,3106,1368,56.27894494,13.93763052,1,10,-3,200,-1,-1,49,7,10,1.0
2,6,185,98354,99880,99880,100884,100884,101505,101537,110037,110037,110656,110688,110721,113789,1526,1004,621,8500,619,557,0,600,1873,3101,3068,1273,71.71591762,15.43697267,1,3,2,160,1,1,51,5,3,2.0
2,6,186,113792,115311,115311,116315,116315,116923,116955,124455,124455,125076,125109,125143,128241,1519,1004,608,7500,621,594,0,600,1854,3132,3098,1254,86.16977832,14.4538607,1,20,8,210,1,1,51,28,20,2.0
2,6,187,128245,129758,129758,130759,130759,131367,131399,139399,139399,140027,140059,140093,143199,1513,1001,608,8000,628,139,0,600,2311,3140,3106,1711,101.1259528,14.95617448,1,4,6,210,1,1,51,10,4,2.0
2,6,188,143202,144722,144722,145728,145728,146332,146366,153366,153366,153995,154027,154060,157156,1520,1006,604,7000,629,581,0,600,1860,3129,3096,1260,115.0827972,13.95684438,1,5,5,160,1,1,51,10,5,2.0
2,6,189,157158,158680,158680,159686,159686,160318,160351,166851,166851,167479,167511,167544,170610,1522,1006,632,6500,628,719,0,600,1693,3099,3066,1093,128.5372232,13.45442604,1,10,-5,150,-1,-1,49,5,10,1.0
2,6,190,170613,172134,172134,173139,173139,173740,173772,182272,182272,182874,182906,182940,186070,1521,1005,601,8500,602,494,0,600,1977,3164,3130,1377,143.9973529,15.46012971,0,21,-1,190,-1,1,51,20,21,2.0
2,6,191,186073,187597,187597,188629,188629,189237,189269,196769,196769,197402,197435,197470,200515,1524,1032,608,7500,633,888,0,600,1515,3080,3045,915,158.4419362,14.4445833,1,8,-1,170,-1,-1,49,7,8,1.0
2,6,192,200517,202037,202037,203040,203040,203662,203695,209695,209695,210318,210351,210385,213459,1520,1003,622,6000,623,463,0,600,1969,3108,3074,1369,171.3857662,12.94382992,1,4,3,170,1,1,51,7,4,2.0
2,6,193,213462,214983,214983,215988,215988,216597,216629,224629,224629,225229,225261,225294,228405,1521,1005,609,8000,600,338,0,600,2127,3144,3111,1527,186.3326301,14.94686393,1,7,7,210,1,1,51,14,7,2.0
2,6,194,228408,229931,229931,230937,230937,231542,231576,240576,240576,241206,241240,241273,244348,1523,1006,605,9000,630,436,0,600,2000,3108,3075,1400,202.2754083,15.94277821,1,20,-6,200,-1,-1,49,14,20,1.0
2,6,195,244350,245871,245871,246875,246875,247475,247508,256509,256509,257142,257175,257208,260291,1521,1004,600,9001,633,676,0,600,1765,3116,3083,1165,218.2194489,15.94404057,0,15,-1,170,-1,1,51,14,15,2.0
2,6,196,260295,261817,261817,262822,262822,263430,263462,271962,271962,272563,272595,272630,275746,1522,1005,608,8500,601,352,0,600,2112,3151,3116,1512,233.6730411,15.4535922,1,14,6,170,1,1,51,20,14,2.0
2,6,197,275748,277269,277269,278271,278271,278890,278922,285922,285922,286554,286587,286621,289695,1521,1002,619,7000,632,466,0,600,1960,3108,3074,1360,247.6217583,13.94871724,1,20,-13,150,-1,-1,49,7,20,1.0
2,6,198,289698,291212,291212,292217,292217,292824,292857,298857,298857,299488,299520,299554,302650,1514,1005,607,6000,631,586,0,600,1857,3130,3096,1257,260.5765565,12.95479821,1,14,6,210,1,1,51,20,14,2.0
2,6,199,302652,304176,304176,305181,305181,305784,305816,312316,312316,312931,312964,312999,316096,1524,1005,603,6500,615,262,0,600,2191,3132,3097,1591,274.023044,13.44648754,1,56,-28,200,-1,-1,49,28,56,1.0
2,6,200,316099,317619,317619,318619,318619,319237,319269,326769,326769,327369,327401,327435,330560,1520,1000,618,7500,600,680,0,600,1782,3159,3125,1182,288.4877049,14.46466083,1,8,-1,180,-1,-1,49,7,8,1.0
2,6,201,330563,332087,332087,333092,333092,333721,333754,341754,341754,342376,342409,342442,345502,1524,1005,629,8000,622,354,0,600,2066,3093,3060,1466,303.4291707,14.94146582,1,3,2,160,1,1,51,5,3,2.0
2,6,202,345505,347024,347024,348032,348032,348637,348669,354669,354669,355284,355316,355350,358453,1519,1008,605,6000,615,756,0,600,1697,3137,3103,1097,316.3804916,12.95132091,1,40,-12,160,-1,-1,49,28,40,1.0
2,6,203,358456,359978,359978,360987,360987,361594,361626,368626,368626,369243,369275,369309,372393,1522,1009,607,7000,617,638,0,600,1807,3118,3084,1207,330.3196801,13.93918851,1,4,6,170,1,1,51,10,4,2.0
2,6,204,372395,373919,373919,374924,374924,375529,375561,382061,382061,382678,382711,382744,385839,1524,1005,605,6500,617,778,0,600,1671,3128,3095,1071,343.7662132,13.44653304,1,20,8,150,1,1,51,28,20,2.0
2,6,205,385842,387364,387364,388366,388366,388973,389006,398006,398006,398609,398641,398675,401777,1522,1002,607,9000,603,431,0,600,2035,3136,3102,1435,359.7042861,15.93807291,0,15,-1,180,-1,1,51,14,15,2.0
2,6,206,401780,403308,403308,404315,404315,404918,404950,412450,412450,413084,413117,413152,416224,1528,1007,603,7500,634,332,0,600,2096,3107,3072,1496,374.1507495,14.44646343,1,20,-13,190,-1,-1,49,7,20,1.0
2,6,207,416226,417751,417751,418753,418753,419356,419388,427388,427388,428011,428044,428078,431158,1525,1002,603,8000,623,314,0,600,2133,3114,3080,1533,389.0854837,14.93473424,1,4,6,190,1,1,51,10,4,2.0
2,6,208,431161,432679,432679,433682,433682,434288,434320,442820,442820,443424,443456,443489,446605,1518,1003,606,8500,604,792,0,600,1677,3149,3116,1077,404.5314698,15.44598609,1,40,-20,180,-1,-1,49,20,40,1.0
2,6,209,446607,448134,448134,449138,449138,449756,449789,456289,456289,456906,456938,456971,460053,1527,1004,618,6500,617,408,0,600,2026,3115,3082,1426,417.9803658,13.44889594,1,2,3,180,1,1,51,5,2,2.0
2,6,210,460056,461578,461578,462586,462586,463192,463226,469226,469226,469847,469879,469913,473015,1522,1008,606,6000,621,365,0,600,2078,3136,3102,1478,430.9421216,12.96175581,1,79,-51,190,-1,-1,49,28,79,1.0
2,6,211,473018,474544,474544,475548,475548,476153,476187,484687,484687,485287,485320,485355,488464,1526,1004,605,8500,600,378,0,600,2087,3144,3109,1487,446.3912435,15.44912195,1,7,7,190,1,1,51,14,7,2.0
2,6,212,488466,489990,489990,490994,490994,491599,491631,498631,498631,499249,499282,499315,502420,1524,1004,605,7000,618,267,0,600,2182,3138,3105,1582,460.3471181,13.95587463,1,40,-20,150,-1,-1,49,20,40,1.0
2,6,213,502423,503950,503950,504956,504956,505588,505621,513621,513621,514240,514272,514304,517366,1527,1006,632,8000,619,319,0,600,2097,3094,3062,1497,475.2923937,14.9452755,1,2,3,210,1,1,51,5,2,2.0
2,6,214,517369,518890,518890,519897,519897,520503,520535,529535,529535,530147,530180,530215,533334,1521,1007,606,9000,612,221,0,600,2233,3154,3119,1633,491.260549,15.9681553,1,40,-20,150,-1,-1,49,20,40,1.0
2,6,215,533337,534860,534860,535865,535865,536492,536525,544025,544025,544627,544660,544693,547784,1523,1005,627,7500,602,514,0,600,1929,3124,3091,1329,505.7112208,14.4506718,0,14,-4,180,-1,1,51,10,14,2.0
2,6,216,547787,549313,549313,550319,550319,550925,550957,556957,556957,557559,557592,557626,560743,1526,1006,606,6000,602,278,0,600,2182,3151,3117,1582,518.6702454,12.95902466,1,28,-14,160,-1,-1,49,14,28,1.0
3,1,1,65685,67210,67210,68237,68237,68859,68891,75391,75391,76013,76045,76081,79148,1525,1027,622,6500,622,965,0,600,1439,3103,3067,839,13.49950096,13.49950096,1,56,-28,210,-1,-1,49,28,56,1.0
3,1,2,79199,80720,80720,81735,81735,82359,82391,88391,88391,89005,89038,89071,92152,1521,1015,624,6000,614,1316,0,600,1110,3114,3081,510,26.45391043,12.95440946,1,3,2,190,1,1,51,5,3,2.0
3,1,3,92155,93676,93676,94678,94678,95307,95340,103840,103840,104440,104472,104506,107596,1521,1002,629,8500,600,764,0,600,1684,3124,3090,1084,41.89726421,15.44335379,1,10,-3,210,-1,-1,49,7,10,1.0
3,1,4,107599,109126,109126,110135,110135,110741,110773,118773,118773,119404,119436,119470,122550,1527,1009,606,8000,631,757,0,600,1670,3114,3080,1070,56.8517692,14.95450499,0,27,1,150,1,-1,49,28,27,1.0
3,1,5,122553,124077,124077,125083,125083,125683,125715,133215,133215,133835,133868,133901,136995,1524,1006,600,7500,620,713,0,600,1737,3127,3094,1137,71.29691844,14.44514924,1,5,2,210,1,1,51,7,5,2.0
3,1,6,136998,138520,138520,139526,139526,140130,140163,149163,149163,149765,149797,149832,152931,1522,1006,604,9000,602,975,0,600,1491,3134,3099,891,87.232595,15.93567656,1,27,1,160,1,1,51,28,27,2.0
3,1,7,152934,154455,154455,155462,155462,156067,156099,163099,163099,163702,163734,163768,166877,1521,1007,605,7000,603,531,0,600,1933,3143,3109,1333,101.1788595,13.94626454,1,28,-8,200,-1,-1,49,20,28,1.0
3,1,8,166880,168407,168407,169409,169409,170015,170048,177048,177048,177649,177681,177714,180822,1527,1002,606,7000,601,1181,0,600,1283,3141,3108,683,115.123297,13.94443745,1,20,-10,160,-1,-1,49,10,20,1.0
3,1,9,180825,182347,182347,183347,183347,183975,184007,190007,190007,190622,190655,190688,193769,1522,1000,628,6000,615,765,0,600,1670,3114,3081,1070,128.07027,12.94697302,1,2,3,150,1,1,51,5,2,2.0
3,1,10,193771,195291,195291,196293,196293,196898,196931,203431,203431,204031,204065,204098,207222,1520,1002,605,6500,600,709,0,600,1764,3157,3124,1164,141.5238544,13.45358436,1,13,1,200,1,1,51,14,13,2.0
3,1,11,207225,208750,208750,209759,209759,210365,210397,219397,219397,220025,220057,220090,223178,1525,1009,606,9000,628,442,0,600,1990,3121,3088,1390,157.4793821,15.95552778,1,7,13,210,1,1,51,20,7,2.0
3,1,12,223181,224703,224703,225705,225705,226311,226343,234843,234843,235475,235507,235542,238635,1522,1002,606,8500,632,1457,0,600,981,3128,3093,381,172.9368331,15.457451,0,9,1,210,1,-1,49,10,9,1.0
3,1,13,238638,240167,240167,241172,241172,241779,241812,249312,249312,249931,249963,249996,253081,1529,1005,607,7500,619,764,0,600,1676,3118,3085,1076,187.3818811,14.44504798,1,57,-37,150,-1,-1,49,20,57,1.0
3,1,14,253083,254605,254605,255610,255610,256216,256248,264248,264248,264848,264880,264913,268019,1522,1005,606,8000,600,1147,0,600,1320,3139,3106,720,202.3205209,14.93863975,1,13,1,160,1,1,51,14,13,2.0
3,1,15,268022,269544,269544,270547,270547,271178,271210,277710,277710,278310,278342,278376,281476,1522,1003,631,6500,600,753,0,600,1691,3134,3100,1091,215.7771365,13.45661566,1,14,-7,170,-1,-1,49,7,14,1.0
3,1,16,281479,282999,282999,284005,284005,284634,284667,291667,291667,292268,292300,292333,295431,1520,1006,629,7000,601,426,0,600,2018,3131,3098,1418,229.732341,13.95520443,1,14,-9,190,-1,-1,49,5,14,1.0
3,1,17,295434,296959,296959,297963,297963,298570,298603,306103,306103,306735,306768,306801,309874,1525,1004,607,7500,632,495,0,600,1937,3106,3073,1337,244.1752418,14.44290086,1,14,6,200,1,1,51,20,14,2.0
3,1,18,309877,311402,311402,312409,312409,313012,313045,321545,321545,322177,322210,322243,325330,1525,1007,603,8500,632,182,0,600,2251,3120,3087,1651,259.631689,15.4564472,1,40,-26,170,-1,-1,49,14,40,1.0
3,1,19,325333,326857,326857,327863,327863,328469,328501,337501,337501,338120,338152,338186,341263,1524,1006,606,9000,619,560,0,600,1885,3111,3077,1285,275.5640881,15.93239906,1,20,-10,190,-1,-1,49,10,20,1.0
3,1,20,341266,342788,342788,343794,343794,344398,344432,352432,352432,353065,353098,353131,356215,1522,1006,604,8000,633,537,0,600,1898,3117,3084,1298,290.5158149,14.95172683,1,40,-12,190,-1,-1,49,28,40,1.0
3,1,21,356218,357739,357739,358745,358745,359351,359384,365384,365384,365985,366018,366052,369160,1521,1006,606,6000,601,561,0,600,1905,3142,3108,1305,303.4608876,12.94507269,1,14,14,150,1,1,51,28,14,2.0
3,1,22,369163,370686,370686,371689,371689,372318,372350,381350,381350,381964,381997,382031,385095,1523,1003,629,9000,614,451,0,600,1980,3098,3064,1380,319.3958973,15.93500967,1,2,5,190,1,1,51,7,2,2.0
3,1,23,385098,386618,386618,387622,387622,388228,388262,395762,395762,396393,396425,396458,399549,1520,1004,606,7500,631,767,0,600,1672,3124,3091,1072,333.8502302,14.45433292,1,10,4,150,1,1,51,14,10,2.0
3,1,24,399552,401075,401075,402081,402081,402686,402718,408718,408718,409337,409370,409403,412497,1523,1006,605,6000,619,580,0,600,1867,3127,3094,1267,346.7986566,12.94842643,1,20,-10,180,-1,-1,49,10,20,1.0
3,1,25,412500,414025,414025,415031,415031,415636,415668,423668,423668,424301,424333,424366,427459,1525,1006,605,8000,633,579,0,600,1852,3126,3093,1252,361.7601304,14.96147374,1,10,10,170,1,1,51,20,10,2.0
3,1,26,427462,428985,428985,429989,429989,430615,430647,439147,439147,439763,439795,439829,442893,1523,1004,626,8500,616,514,0,600,1917,3098,3064,1317,377.1941447,15.43401431,1,4,3,200,1,1,51,7,4,2.0
3,1,27,442895,444422,444422,445430,445430,446057,446090,453090,453090,453721,453754,453788,456850,1527,1008,627,7000,631,644,0,600,1763,3096,3062,1163,391.150377,13.95623234,1,14,-7,160,-1,-1,49,7,14,1.0
3,1,28,456852,458372,458372,459379,459379,459982,460014,466514,466514,467135,467168,467201,470297,1520,1007,603,6500,621,448,0,600,2001,3129,3096,1401,404.5984102,13.44803317,1,5,9,150,1,1,51,14,5,2.0
3,1,29,470300,471823,471823,472830,472830,473431,473463,479963,479963,480577,480609,480642,483747,1523,1007,601,6500,614,561,0,600,1894,3138,3105,1294,418.0485218,13.45011159,1,2,3,150,1,1,51,5,2,2.0
3,1,30,483750,485275,485275,486282,486282,486886,486918,494418,494418,495019,495051,495084,498188,1525,1007,604,7500,601,461,0,600,2002,3137,3104,1402,432.489277,14.44075523,1,20,-10,200,-1,-1,49,10,20,1.0
3,1,31,498191,499718,499718,500727,500727,501351,501384,508384,508384,509000,509032,509066,512150,1527,1009,624,7000,616,634,0,600,1790,3118,3084,1190,446.4510458,13.96176876,1,2,3,170,1,1,51,5,2,2.0
3,1,32,512153,513674,513674,514682,514682,515288,515320,524320,524320,524922,524954,524987,528102,1521,1008,606,9000,602,1025,0,600,1438,3148,3115,838,462.4031062,15.95206043,0,19,1,180,1,-1,49,20,19,1.0
3,1,33,528104,529629,529629,530635,530635,531256,531288,539788,539788,540402,540435,540469,543562,1525,1006,621,8500,614,512,0,600,1922,3127,3093,1322,477.8631922,15.46008602,1,2,3,200,1,1,51,5,2,2.0
3,1,34,543565,545090,545090,546097,546097,546702,546735,552735,552735,553354,553386,553419,556520,1525,1007,605,6000,619,390,0,600,2054,3134,3101,1454,490.8206586,12.95746637,1,5,9,160,1,1,51,14,5,2.0
3,1,35,556523,558050,558050,559056,559056,559658,559691,567691,567691,568315,568348,568381,571477,1527,1006,602,8000,624,421,0,600,2020,3129,3096,1420,505.7777212,14.95706256,1,7,3,160,1,1,51,10,7,2.0
3,1,36,571478,573003,573003,574007,574007,574611,574644,583644,583644,584246,584280,584314,587437,1525,1004,604,9000,602,1744,0,600,721,3157,3123,121,521.7378786,15.96015744,0,20,8,200,1,-1,49,28,20,1.0
3,2,37,39432,40957,40957,41963,41963,42571,42604,49104,49104,49706,49738,49771,52889,1525,1006,608,6500,602,286,0,600,2173,3151,3118,1573,13.45742207,13.45742207,1,13,1,210,1,1,51,14,13,2.0
3,2,38,52891,54417,54417,55421,55421,56023,56056,63056,63056,63656,63688,63722,66833,1526,1004,602,7000,600,140,0,600,2328,3145,3111,1728,27.40180528,13.9443832,1,19,1,180,1,1,51,20,19,2.0
3,2,39,66836,68358,68358,69363,69363,69992,70025,77525,77525,78143,78176,78209,81273,1522,1005,629,7500,618,517,0,600,1909,3097,3064,1309,41.8422227,14.44041742,1,4,1,190,1,1,51,5,4,2.0
3,2,40,81276,82803,82803,83806,83806,84412,84446,90446,90446,91046,91078,91112,94217,1527,1003,606,6000,600,297,0,600,2167,3139,3105,1567,54.78602791,12.94380521,1,40,-12,210,-1,-1,49,28,40,1.0
3,2,41,94220,95740,95740,96743,96743,97343,97375,105375,105375,105992,106024,106058,109151,1520,1003,600,8000,617,453,0,600,2007,3127,3093,1407,69.71960827,14.93358036,1,4,3,190,1,1,51,7,4,2.0
3,2,42,109154,110679,110679,111688,111688,112291,112323,121323,121323,121953,121986,122019,125088,1525,1009,603,9000,630,912,0,600,1521,3102,3069,921,85.65665688,15.93704861,0,9,1,210,1,-1,49,10,9,1.0
3,2,43,125091,126612,126612,127616,127616,128222,128253,136753,136753,137356,137388,137422,140523,1521,1004,606,8500,603,333,0,600,2133,3135,3101,1533,101.0921882,15.43553131,1,28,-18,170,-1,-1,49,10,28,1.0
3,2,44,140526,142049,142049,143054,143054,143680,143712,151712,151712,152314,152347,152382,155458,1523,1005,626,8000,602,341,0,600,2103,3111,3076,1503,116.026867,14.93467879,1,14,-9,200,-1,-1,49,5,14,1.0
3,2,45,155460,156983,156983,157989,157989,158592,158625,165125,165125,165725,165758,165791,168914,1523,1006,603,6500,600,837,0,600,1631,3156,3123,1031,129.4826828,13.45581587,1,28,-8,190,-1,-1,49,20,28,1.0
3,2,46,168916,170443,170443,171449,171449,172068,172100,181100,181100,181728,181761,181795,184860,1527,1006,619,9000,628,484,0,600,1936,3099,3065,1336,145.4289923,15.94630944,1,6,1,170,1,1,51,7,6,2.0
3,2,47,184863,186382,186382,187388,187388,187988,188020,196520,196520,197132,197165,197199,200300,1519,1006,600,8500,612,487,0,600,1976,3135,3101,1376,160.8685771,15.43958479,0,6,1,180,1,-1,49,7,6,1.0
3,2,48,200303,201831,201831,202836,202836,203442,203475,210975,210975,211606,211639,211672,214768,1528,1005,606,7500,631,358,0,600,2072,3129,3096,1472,175.3364123,14.46783527,1,7,13,210,1,1,51,20,7,2.0
3,2,49,214771,216296,216296,217304,217304,217910,217942,223942,223942,224567,224601,224634,227725,1525,1008,606,6000,625,256,0,600,2180,3124,3091,1580,188.2934851,12.95707281,1,7,7,200,1,1,51,14,7,2.0
3,2,50,227728,229255,229255,230260,230260,230861,230893,237893,237893,238494,238526,238560,241664,1527,1005,601,7000,601,1235,0,600,1231,3138,3104,631,202.2328515,13.93936631,0,20,-10,200,-1,1,51,10,20,2.0
3,2,51,241667,243191,243191,244194,244194,244826,244859,252359,252359,252979,253012,253046,256120,1524,1003,632,7500,620,78,0,600,2343,3108,3074,1743,216.6895421,14.45669069,1,6,1,190,1,1,51,7,6,2.0
3,2,52,256123,257648,257648,258654,258654,259274,259305,268305,268305,268921,268953,268987,272056,1525,1006,620,9000,616,365,0,600,2068,3103,3069,1468,232.6247625,15.93522031,1,4,1,180,1,1,51,5,4,2.0
3,2,53,272059,273587,273587,274592,274592,275196,275229,281729,281729,282330,282364,282397,285491,1528,1005,604,6500,601,846,0,600,1616,3127,3094,1016,246.0600464,13.4352839,1,28,-14,210,-1,-1,49,14,28,1.0
3,2,54,285494,287014,287014,288020,288020,288646,288679,296679,296679,297298,297331,297364,300441,1520,1006,626,8000,619,438,0,600,1991,3110,3077,1391,261.0096261,14.94957971,1,4,1,170,1,1,51,5,4,2.0
3,2,55,300444,301968,301968,302972,302972,303580,303612,312112,312112,312714,312747,312780,315863,1524,1004,608,8500,602,-1,2501,0,561,3116,3083,-39,276.4316719,15.42204584,-1,56,-28,200,-1,-2,-1,28,56,
3,2,56,315866,317391,317391,318394,318394,318998,319030,326030,326030,326662,326695,326729,329810,1525,1003,604,7000,632,506,0,600,1930,3115,3081,1330,290.3782688,13.94659693,1,19,1,170,1,1,51,20,19,2.0
3,2,57,329813,331339,331339,332344,332344,332969,333001,339001,339001,339628,339661,339694,342763,1526,1005,625,6000,627,141,0,600,2276,3102,3069,1676,303.3317203,12.95345147,0,7,-2,150,-1,1,51,5,7,2.0
3,2,58,342766,344287,344287,345290,345290,345921,345954,352454,352454,353072,353104,353138,356206,1521,1003,631,6500,618,233,0,600,2194,3102,3068,1594,316.7742752,13.4425549,1,4,3,160,1,1,51,7,4,2.0
3,2,59,356209,357733,357733,358737,358737,359368,359400,366400,366400,367032,367065,367099,370159,1524,1004,631,7000,632,517,0,600,1892,3094,3060,1292,330.7275407,13.95326553,1,7,-2,200,-1,-1,49,5,7,1.0
3,2,60,370162,371686,371686,372694,372694,373296,373329,381329,381329,381947,381979,382013,385119,1524,1008,602,8000,618,302,0,600,2146,3140,3106,1546,345.6876488,14.96010802,1,5,9,180,1,1,51,14,5,2.0
