subject,session,run,trial_nr,n,response,range,response_time
01,1,1,1,11.0,,narrow,
01,1,1,2,23.0,19.0,narrow,1.3179628000002594
01,1,1,3,23.0,25.0,narrow,0.8342437999999675
01,1,1,4,22.0,24.0,narrow,1.7013805999999931
01,1,1,5,21.0,17.0,narrow,2.0188812000001235
01,1,1,6,20.0,15.0,narrow,1.668271900000036
01,1,1,7,10.0,10.0,narrow,1.4016234999999142
01,1,1,8,19.0,19.0,narrow,1.651578800000152
01,1,1,9,21.0,19.0,narrow,1.9320007999999689
01,1,1,10,18.0,16.0,narrow,1.1513885000003938
01,1,1,11,22.0,21.0,narrow,1.1345446000000263
01,1,1,12,13.0,12.0,narrow,1.8349286000002392
01,1,1,13,20.0,17.0,narrow,0.1669378000001415
01,1,1,14,19.0,16.0,narrow,1.0509307000002082
01,1,1,15,19.0,20.0,narrow,0.350475500000357
01,1,1,16,20.0,,narrow,
01,1,1,17,20.0,16.0,narrow,2.18556609999996
01,1,1,18,12.0,14.0,narrow,1.1179821999999149
01,1,1,19,12.0,10.0,narrow,1.6013429999998152
01,1,1,20,16.0,17.0,narrow,1.9351895999998303
01,1,1,21,23.0,19.0,narrow,1.117887499999597
01,1,1,22,10.0,12.0,narrow,0.7506451999997807
01,1,1,23,18.0,18.0,narrow,1.501535800000056
01,1,1,24,16.0,19.0,narrow,2.1523627000001397
01,1,1,25,11.0,13.0,narrow,1.1846925999998348
01,1,1,26,12.0,,narrow,
01,1,1,27,20.0,19.0,narrow,1.6685867999999573
01,1,1,28,17.0,20.0,narrow,1.5517139000003226
01,1,1,29,10.0,10.0,narrow,0.4113220999997793
01,1,1,30,22.0,25.0,narrow,0.6173664000002645
01,1,2,1,11.0,12.0,narrow,1.3681848000001082
01,1,2,2,18.0,18.0,narrow,1.901818700000149
01,1,2,3,24.0,25.0,narrow,0.9677553999999872
01,1,2,4,17.0,15.0,narrow,1.1843732000002092
01,1,2,5,17.0,15.0,narrow,0.1334249000001364
01,1,2,6,17.0,17.0,narrow,0.1334610999997494
01,1,2,7,10.0,10.0,narrow,0.5841787999997905
01,1,2,8,20.0,20.0,narrow,1.9354174000000055
01,1,2,9,16.0,16.0,narrow,1.4180644000002758
01,1,2,10,25.0,20.0,narrow,0.8844205000000329
01,1,2,11,21.0,20.0,narrow,0.2836738999999397
01,1,2,12,13.0,12.0,narrow,1.067721899999924
01,1,2,13,24.0,21.0,narrow,2.1688819999999396
01,1,2,14,10.0,10.0,narrow,0.8843497000002571
01,1,2,15,18.0,18.0,narrow,2.034569200000078
01,1,2,16,10.0,11.0,narrow,1.6184290999999575
01,1,2,17,24.0,25.0,narrow,0.6173958999997922
01,1,2,18,19.0,18.0,narrow,0.2669332000004942
01,1,2,19,17.0,18.0,narrow,2.218899700000293
01,1,2,20,13.0,15.0,narrow,1.3178995999996914
01,1,2,21,22.0,19.0,narrow,2.1355252999992445
01,1,2,22,22.0,22.0,narrow,1.918385699999817
01,1,2,23,24.0,25.0,narrow,0.9011442999999416
01,1,2,24,21.0,17.0,narrow,0.9676127000002452
01,1,2,25,10.0,10.0,narrow,0.5169087000003856
01,1,2,26,20.0,22.0,narrow,2.0188542000005327
01,1,2,27,10.0,10.0,narrow,0.5670608999998876
01,1,2,28,19.0,19.0,narrow,1.0677839999998469
01,1,2,29,15.0,16.0,narrow,1.7675091000000975
01,1,2,30,25.0,21.0,narrow,0.7672281999994084
01,1,3,1,11.0,12.0,narrow,1.3513010999995458
01,1,3,2,12.0,12.0,narrow,0.2503225999998903
01,1,3,3,17.0,16.0,narrow,0.3505053999997471
01,1,3,4,10.0,10.0,narrow,0.7340496999995594
01,1,3,5,24.0,20.0,narrow,1.518315100000109
01,1,3,6,20.0,18.0,narrow,0.1833553000005849
01,1,3,7,17.0,17.0,narrow,1.5513663000001543
01,1,3,8,15.0,16.0,narrow,0.7172047000003658
01,1,3,9,17.0,17.0,narrow,0.483875299999454
01,1,3,10,25.0,21.0,narrow,2.2020201000004818
01,1,3,11,18.0,16.0,narrow,1.7352607000002536
01,1,3,12,14.0,12.0,narrow,2.0020086000004085
01,1,3,13,12.0,13.0,narrow,0.3471610000005967
01,1,3,14,11.0,10.0,narrow,1.017702400000417
01,1,3,15,16.0,15.0,narrow,0.7675009000004138
01,1,3,16,10.0,10.0,narrow,0.1668880999995963
01,1,3,17,15.0,19.0,narrow,0.5671824999999444
01,1,3,18,18.0,18.0,narrow,0.2168785000003481
01,1,3,19,10.0,11.0,narrow,1.3347397999996249
01,1,3,20,23.0,22.0,narrow,0.4168716999993194
01,1,3,21,25.0,21.0,narrow,1.3849245999999766
01,1,3,22,17.0,18.0,narrow,1.0843406000003597
01,1,3,23,24.0,20.0,narrow,1.8684911999998803
01,1,3,24,18.0,16.0,narrow,0.8006776000001992
01,1,3,25,25.0,22.0,narrow,0.1335400999996636
01,1,3,26,11.0,12.0,narrow,1.6686564000001454
01,1,3,27,13.0,13.0,narrow,2.0686479999994845
01,1,3,28,25.0,21.0,narrow,1.2847136999998838
01,1,3,29,19.0,16.0,narrow,1.1668718000000808
01,1,3,30,13.0,15.0,narrow,0.1165765999994619
01,1,4,1,13.0,14.0,narrow,1.0177464999997028
01,1,4,2,18.0,19.0,narrow,0.3837876999996297
01,1,4,3,19.0,17.0,narrow,1.7173987999995006
01,1,4,4,18.0,17.0,narrow,2.1021536000007472
01,1,4,5,25.0,25.0,narrow,0.8005730000004405
01,1,4,6,14.0,15.0,narrow,1.01788359999955
01,1,4,7,20.0,21.0,narrow,1.1513723999996728
01,1,4,8,10.0,11.0,narrow,0.9509981000001062
01,1,4,9,18.0,18.0,narrow,0.4505411000000094
01,1,4,10,20.0,17.0,narrow,0.3004377999995995
01,1,4,11,18.0,20.0,narrow,1.7352381000000603
01,1,4,12,25.0,20.0,narrow,0.0635330000004614
01,1,4,13,21.0,18.0,narrow,0.4137980999994397
01,1,4,14,25.0,21.0,narrow,0.230284300000676
01,1,4,15,22.0,,narrow,
01,1,4,16,17.0,18.0,narrow,1.38467750000018
01,1,4,17,16.0,16.0,narrow,1.48473709999962
01,1,4,18,16.0,15.0,narrow,2.085200000000441
01,1,4,19,12.0,13.0,narrow,1.4682056000001469
01,1,4,20,19.0,17.0,narrow,1.4013668000006874
01,1,4,21,11.0,12.0,narrow,1.0175659999995332
01,1,4,22,25.0,24.0,narrow,0.8507116000000678
01,1,4,23,18.0,19.0,narrow,1.2013121999998475
01,1,4,24,25.0,19.0,narrow,1.71827519999988
01,1,4,25,17.0,17.0,narrow,0.934277999999722
01,1,4,26,14.0,16.0,narrow,1.284552000000076
01,1,4,27,16.0,17.0,narrow,0.1001544000000649
01,1,4,28,17.0,17.0,narrow,0.7008205000001908
01,1,4,29,23.0,22.0,narrow,0.2503019999994649
01,1,4,30,10.0,11.0,narrow,0.3501836000004914
01,1,5,1,28.0,33.0,wide,1.334708899999896
01,1,5,2,34.0,31.0,wide,1.0176934999999503
01,1,5,3,19.0,21.0,wide,1.034244899999976
01,1,5,4,33.0,29.0,wide,0.6172034999999596
01,1,5,5,28.0,24.0,wide,0.2670693000000028
01,1,5,6,31.0,28.0,wide,1.88497229999939
01,1,5,7,10.0,13.0,wide,1.9186803000002328
01,1,5,8,40.0,34.0,wide,2.2854925999999978
01,1,5,9,32.0,24.0,wide,1.7331490999995367
01,1,5,10,27.0,25.0,wide,0.6341283000001567
01,1,5,11,30.0,26.0,wide,1.201145500000166
01,1,5,12,38.0,37.0,wide,1.151141600000301
01,1,5,13,31.0,,wide,
01,1,5,14,12.0,15.0,wide,1.551285700000335
01,1,5,15,13.0,13.0,wide,0.0300239999996847
01,1,5,16,33.0,29.0,wide,0.9843948999996428
01,1,5,17,30.0,30.0,wide,1.464887400000407
01,1,5,18,26.0,23.0,wide,0.1666990999992776
01,1,5,19,23.0,24.0,wide,1.5014403000004677
01,1,5,20,38.0,32.0,wide,0.2335536000000502
01,1,5,21,24.0,21.0,wide,0.0667687999994086
01,1,5,22,37.0,,wide,
01,1,5,23,39.0,34.0,wide,1.7018046000002869
01,1,5,24,38.0,30.0,wide,1.8517324999993432
01,1,5,25,15.0,17.0,wide,1.56837859999996
01,1,5,26,19.0,19.0,wide,1.2176481999995303
01,1,5,27,29.0,25.0,wide,1.5850445000005493
01,1,5,28,13.0,14.0,wide,1.8016954000004264
01,1,5,29,10.0,13.0,wide,1.9183619999994337
01,1,5,30,19.0,21.0,wide,0.7170646999993551
01,1,6,1,33.0,28.0,wide,1.100951100000202
01,1,6,2,38.0,36.0,wide,0.250110200000563
01,1,6,3,29.0,23.0,wide,0.4170936000000438
01,1,6,4,20.0,22.0,wide,1.367861400000038
01,1,6,5,15.0,18.0,wide,1.5180203999998412
01,1,6,6,14.0,18.0,wide,2.0353658000003634
01,1,6,7,13.0,15.0,wide,1.6354168999996546
01,1,6,8,11.0,16.0,wide,1.8018353000006757
01,1,6,9,30.0,31.0,wide,0.3330221999995046
01,1,6,10,10.0,17.0,wide,1.468050000000403
01,1,6,11,35.0,32.0,wide,0.4838972999996258
01,1,6,12,39.0,40.0,wide,1.0012393999995766
01,1,6,13,36.0,32.0,wide,0.1968176000000312
01,1,6,14,24.0,21.0,wide,1.067809899999702
01,1,6,15,21.0,19.0,wide,0.1135124000002179
01,1,6,16,20.0,19.0,wide,0.1129498000000239
01,1,6,17,29.0,23.0,wide,2.01842089999991
01,1,6,18,17.0,,wide,
01,1,6,19,20.0,,wide,
01,1,6,20,15.0,17.0,wide,1.368039099999805
01,1,6,21,19.0,21.0,wide,1.6814930999998978
01,1,6,22,20.0,21.0,wide,1.1444080000001122
01,1,6,23,31.0,29.0,wide,0.2834589000003689
01,1,6,24,14.0,18.0,wide,2.1023347000000285
01,1,6,25,25.0,27.0,wide,1.9853784999995696
01,1,6,26,10.0,12.0,wide,1.0177110000004177
01,1,6,27,24.0,21.0,wide,1.067926599999737
01,1,6,28,37.0,33.0,wide,0.8673815000001923
01,1,6,29,38.0,38.0,wide,1.5015561000000162
01,1,6,30,34.0,28.0,wide,1.0677139999997962
01,1,7,1,29.0,25.0,wide,0.0499206000004051
01,1,7,2,20.0,19.0,wide,0.250512599999638
01,1,7,3,12.0,,wide,
01,1,7,4,13.0,16.0,wide,1.384894400000121
01,1,7,5,21.0,25.0,wide,1.618409900000188
01,1,7,6,22.0,24.0,wide,0.9343638000000284
01,1,7,7,22.0,21.0,wide,1.551752299999862
01,1,7,8,16.0,21.0,wide,1.4512090999996872
01,1,7,9,10.0,14.0,wide,1.0178524000002651
01,1,7,10,10.0,,wide,
01,1,7,11,21.0,25.0,wide,1.468091099999583
01,1,7,12,35.0,32.0,wide,0.8674859000002471
01,1,7,13,38.0,40.0,wide,0.9343018999998094
01,1,7,14,35.0,30.0,wide,1.401542000000518
01,1,7,15,31.0,27.0,wide,0.4336887999997998
01,1,7,16,21.0,19.0,wide,1.0010402999996586
01,1,7,17,36.0,31.0,wide,1.3846639000003051
01,1,7,18,25.0,26.0,wide,0.833722299999863
01,1,7,19,25.0,22.0,wide,1.518207999999504
01,1,7,20,11.0,10.0,wide,1.0176750000000538
01,1,7,21,31.0,27.0,wide,1.1105399999996737
01,1,7,22,13.0,18.0,wide,1.2180809999999838
01,1,7,23,22.0,20.0,wide,1.968414400000256
01,1,7,24,25.0,25.0,wide,1.9020902000002025
01,1,7,25,19.0,19.0,wide,1.951659700000164
01,1,7,26,38.0,31.0,wide,0.9677491000002192
01,1,7,27,11.0,11.0,wide,1.85132270000031
01,1,7,28,24.0,19.0,wide,0.4501220000001922
01,1,7,29,23.0,20.0,wide,1.18453640000007
01,1,7,30,26.0,26.0,wide,0.5336256000000503
01,1,8,1,22.0,21.0,wide,1.5349734000001265
01,1,8,2,39.0,34.0,wide,1.576813100000436
01,1,8,3,21.0,27.0,wide,0.0333737999999357
01,1,8,4,21.0,22.0,wide,1.6850297999999384
01,1,8,5,11.0,14.0,wide,0.800464999999349
01,1,8,6,20.0,18.0,wide,1.985123599999497
01,1,8,7,23.0,28.0,wide,2.0521490000000995
01,1,8,8,19.0,17.0,wide,2.0511858999998367
01,1,8,9,15.0,19.0,wide,0.0999197999999523
01,1,8,10,38.0,33.0,wide,1.635176699999647
01,1,8,11,16.0,19.0,wide,0.5506992000000537
01,1,8,12,12.0,17.0,wide,0.6506902000000991
01,1,8,13,28.0,26.0,wide,0.0333258000000569
01,1,8,14,13.0,17.0,wide,1.5183662999997978
01,1,8,15,27.0,31.0,wide,0.3668538000001717
01,1,8,16,13.0,21.0,wide,0.6341886999998678
01,1,8,17,18.0,22.0,wide,1.4013512999999875
01,1,8,18,37.0,33.0,wide,1.5181867000001148
01,1,8,19,19.0,21.0,wide,0.1636797999999544
01,1,8,20,20.0,21.0,wide,1.5681984000002558
01,1,8,21,38.0,33.0,wide,0.4804082999999082
01,1,8,22,17.0,18.0,wide,0.7808950999997251
01,1,8,23,39.0,31.0,wide,0.7972530999995797
01,1,8,24,17.0,21.0,wide,1.11440550000043
01,1,8,25,31.0,31.0,wide,1.1680721999991874
01,1,8,26,37.0,33.0,wide,0.8007643999999345
01,1,8,27,37.0,35.0,wide,1.3181920999995782
01,1,8,28,22.0,23.0,wide,1.5680760999994163
01,1,8,29,28.0,29.0,wide,1.0000914000002012
01,1,8,30,27.0,27.0,wide,0.3168755000006058
01,2,1,1,34.0,23.0,wide,1.901761799999804
01,2,1,2,17.0,16.0,wide,1.384994399999414
01,2,1,3,10.0,10.0,wide,0.7340069000019867
01,2,1,4,15.0,18.0,wide,1.385046199997305
01,2,1,5,15.0,19.0,wide,1.9855938000000608
01,2,1,6,15.0,22.0,wide,1.935236299999815
01,2,1,7,11.0,15.0,wide,1.3677592000021832
01,2,1,8,32.0,35.0,wide,1.1678036999983306
01,2,1,9,29.0,31.0,wide,0.4504081999984919
01,2,1,10,21.0,26.0,wide,0.9179662000024108
01,2,1,11,32.0,33.0,wide,0.9641861999989488
01,2,1,12,27.0,28.0,wide,1.9186502999982624
01,2,1,13,24.0,26.0,wide,1.1143513999995776
01,2,1,14,17.0,22.0,wide,1.881249599999137
01,2,1,15,32.0,28.0,wide,1.117789799998718
01,2,1,16,36.0,33.0,wide,0.9475089000006848
01,2,1,17,36.0,33.0,wide,0.4805242999973416
01,2,1,18,17.0,,wide,
01,2,1,19,27.0,18.0,wide,0.7504990000015823
01,2,1,20,19.0,21.0,wide,1.651708500001405
01,2,1,21,12.0,12.0,wide,0.1168155999985174
01,2,1,22,34.0,32.0,wide,1.41835120000178
01,2,1,23,13.0,11.0,wide,0.8841219999994792
01,2,1,24,19.0,22.0,wide,1.9019932999981393
01,2,1,25,23.0,23.0,wide,0.13368100000298
01,2,1,26,32.0,31.0,wide,2.0520409000018844
01,2,1,27,21.0,22.0,wide,1.0679055999971752
01,2,1,28,18.0,19.0,wide,2.1523869000011473
01,2,1,29,18.0,19.0,wide,1.5842698000014934
01,2,1,30,15.0,22.0,wide,0.8672703000011097
01,2,2,1,22.0,24.0,wide,1.4514950000011595
01,2,2,2,27.0,28.0,wide,1.0476089000003412
01,2,2,3,14.0,16.0,wide,0.5168362999975216
01,2,2,4,21.0,,wide,
01,2,2,5,39.0,33.0,wide,1.8357022999989567
01,2,2,6,24.0,23.0,wide,0.8174715000022843
01,2,2,7,18.0,20.0,wide,2.0853437000005215
01,2,2,8,15.0,18.0,wide,0.6505433000020275
01,2,2,9,29.0,26.0,wide,1.6514945999988413
01,2,2,10,30.0,31.0,wide,1.6346823000021686
01,2,2,11,23.0,25.0,wide,1.3839302000014868
01,2,2,12,29.0,28.0,wide,1.4345291000026918
01,2,2,13,35.0,32.0,wide,0.3503464000023086
01,2,2,14,16.0,18.0,wide,0.3167357999991509
01,2,2,15,32.0,27.0,wide,1.5016748000016378
01,2,2,16,16.0,17.0,wide,0.0832596000000194
01,2,2,17,37.0,36.0,wide,1.3679245999992418
01,2,2,18,22.0,22.0,wide,1.418209000003117
01,2,2,19,16.0,19.0,wide,1.1016739000006055
01,2,2,20,37.0,33.0,wide,0.3671175999988918
01,2,2,21,11.0,11.0,wide,1.4850055999995675
01,2,2,22,12.0,15.0,wide,2.051769099998637
01,2,2,23,21.0,20.0,wide,0.3502346999994188
01,2,2,24,19.0,24.0,wide,0.3167018999993161
01,2,2,25,10.0,13.0,wide,1.4277709999987565
01,2,2,26,21.0,28.0,wide,0.5139873000007356
01,2,2,27,40.0,36.0,wide,1.4642875999998068
01,2,2,28,27.0,29.0,wide,2.0189745999996376
01,2,2,29,22.0,27.0,wide,1.6346441999994568
01,2,2,30,23.0,29.0,wide,1.401465300001291
01,2,3,1,29.0,27.0,wide,1.0850080999989586
01,2,3,2,39.0,35.0,wide,1.7683921999996528
01,2,3,3,11.0,10.0,wide,0.1668704000003344
01,2,3,4,11.0,11.0,wide,0.0168238999976892
01,2,3,5,38.0,33.0,wide,1.1682011000011698
01,2,3,6,37.0,30.0,wide,0.2503772000018216
01,2,3,7,39.0,31.0,wide,1.2183772999997018
01,2,3,8,29.0,31.0,wide,1.5512521999989983
01,2,3,9,24.0,27.0,wide,0.9513168000012228
01,2,3,10,21.0,26.0,wide,0.8000433999986853
01,2,3,11,37.0,32.0,wide,1.7018085999989123
01,2,3,12,25.0,24.0,wide,0.1300794999988284
01,2,3,13,40.0,33.0,wide,1.4143700999993598
01,2,3,14,13.0,13.0,wide,0.4009632999986934
01,2,3,15,11.0,15.0,wide,1.1334272999993118
01,2,3,16,40.0,31.0,wide,1.0507051999993564
01,2,3,17,34.0,35.0,wide,0.4505523000007088
01,2,3,18,11.0,16.0,wide,1.651977399997122
01,2,3,19,16.0,20.0,wide,1.667267400000128
01,2,3,20,17.0,23.0,wide,0.7172038999997312
01,2,3,21,31.0,31.0,wide,1.517302299998846
01,2,3,22,29.0,31.0,wide,0.3506044999994628
01,2,3,23,16.0,17.0,wide,1.6684922999993432
01,2,3,24,40.0,36.0,wide,2.0359141000008094
01,2,3,25,19.0,27.0,wide,0.1500426999991759
01,2,3,26,11.0,15.0,wide,1.3847768000014185
01,2,3,27,34.0,33.0,wide,1.0841892999997071
01,2,3,28,21.0,,wide,
01,2,3,29,10.0,17.0,wide,0.3335274999990361
01,2,3,30,31.0,33.0,wide,0.8170634999987669
01,2,4,1,15.0,18.0,wide,1.1180725999984134
01,2,4,2,15.0,21.0,wide,1.6347295999985365
01,2,4,3,21.0,29.0,wide,1.2183448999967368
01,2,4,4,39.0,37.0,wide,0.8175569000013638
01,2,4,5,28.0,31.0,wide,1.8851125000001048
01,2,4,6,38.0,35.0,wide,1.217550699999265
01,2,4,7,19.0,24.0,wide,1.3682828999990306
01,2,4,8,34.0,34.0,wide,0.200188300001173
01,2,4,9,30.0,28.0,wide,1.599718600002234
01,2,4,10,25.0,30.0,wide,0.6508141999984218
01,2,4,11,28.0,31.0,wide,1.6183681999973487
01,2,4,12,36.0,36.0,wide,1.0305518000022855
01,2,4,13,22.0,27.0,wide,1.4352084999991348
01,2,4,14,14.0,21.0,wide,0.7338231000030646
01,2,4,15,12.0,19.0,wide,0.4335934000009729
01,2,4,16,34.0,31.0,wide,1.7180465000019467
01,2,4,17,37.0,35.0,wide,1.0166458999992756
01,2,4,18,28.0,29.0,wide,2.085077600000659
01,2,4,19,34.0,33.0,wide,0.9342897000024096
01,2,4,20,39.0,39.0,wide,1.4677523999998812
01,2,4,21,28.0,26.0,wide,1.6018965000002936
01,2,4,22,23.0,26.0,wide,1.852150700000493
01,2,4,23,24.0,24.0,wide,1.1514796000010392
01,2,4,24,38.0,34.0,wide,2.152753100002883
01,2,4,25,40.0,35.0,wide,1.384458699998504
01,2,4,26,39.0,35.0,wide,0.6338629999991099
01,2,4,27,28.0,25.0,wide,1.852045800002088
01,2,4,28,35.0,33.0,wide,1.4847625000002154
01,2,4,29,17.0,20.0,wide,0.7335894999996526
01,2,4,30,23.0,22.0,wide,0.3161896000019624
01,2,5,1,16.0,16.0,narrow,0.6305233999992197
01,2,5,2,15.0,20.0,narrow,1.4512175999989267
01,2,5,3,15.0,21.0,narrow,1.0472375999997894
01,2,5,4,14.0,19.0,narrow,2.001721799999359
01,2,5,5,24.0,25.0,narrow,0.2335047999986272
01,2,5,6,22.0,25.0,narrow,0.7507088000020303
01,2,5,7,15.0,19.0,narrow,1.0341711000000942
01,2,5,8,22.0,22.0,narrow,1.58514439999999
01,2,5,9,19.0,22.0,narrow,0.9178887000016402
01,2,5,10,12.0,16.0,narrow,1.4686091000003216
01,2,5,11,15.0,19.0,narrow,0.5003819999983534
01,2,5,12,14.0,19.0,narrow,0.1169001000016578
01,2,5,13,13.0,16.0,narrow,1.2356169000013324
01,2,5,14,23.0,25.0,narrow,0.8680454000023019
01,2,5,15,25.0,24.0,narrow,1.1679554999973334
01,2,5,16,20.0,22.0,narrow,0.1170639000010851
01,2,5,17,17.0,19.0,narrow,0.2503017999988515
01,2,5,18,16.0,19.0,narrow,0.8176276999984111
01,2,5,19,15.0,17.0,narrow,1.1349415999975463
01,2,5,20,25.0,25.0,narrow,1.5686674999997194
01,2,5,21,16.0,21.0,narrow,2.202131300000474
01,2,5,22,19.0,18.0,narrow,0.6672054000009666
01,2,5,23,14.0,17.0,narrow,1.384393500000442
01,2,5,24,10.0,13.0,narrow,0.5804629999984172
01,2,5,25,25.0,23.0,narrow,1.3981659000019135
01,2,5,26,21.0,21.0,narrow,0.7342372000020987
01,2,5,27,25.0,21.0,narrow,0.9176955000002636
01,2,5,28,18.0,22.0,narrow,0.2834483999977237
01,2,5,29,15.0,18.0,narrow,1.6018375999992711
01,2,5,30,18.0,20.0,narrow,0.1833874000003561
01,2,6,1,19.0,18.0,narrow,1.602046200001496
01,2,6,2,25.0,21.0,narrow,1.3350514999983716
01,2,6,3,12.0,15.0,narrow,1.0180168000006231
01,2,6,4,21.0,23.0,narrow,0.6506975999982387
01,2,6,5,20.0,22.0,narrow,0.9679832000001624
01,2,6,6,16.0,18.0,narrow,1.866529900002206
01,2,6,7,23.0,21.0,narrow,0.7841466999998374
01,2,6,8,13.0,16.0,narrow,0.3329400999973586
01,2,6,9,17.0,18.0,narrow,1.100938399998995
01,2,6,10,15.0,18.0,narrow,0.0666358000016771
01,2,6,11,21.0,20.0,narrow,0.0335436000023037
01,2,6,12,18.0,19.0,narrow,0.6841055999975652
01,2,6,13,13.0,15.0,narrow,0.7010478999982297
01,2,6,14,14.0,17.0,narrow,1.4511480999972264
01,2,6,15,23.0,23.0,narrow,1.0312245999994047
01,2,6,16,17.0,19.0,narrow,1.2678464999989956
01,2,6,17,12.0,17.0,narrow,0.38049989999854
01,2,6,18,10.0,14.0,narrow,0.3633354000012332
01,2,6,19,10.0,18.0,narrow,0.2172514999983832
01,2,6,20,20.0,24.0,narrow,1.2181890000028943
01,2,6,21,21.0,25.0,narrow,1.0509453999984544
01,2,6,22,11.0,15.0,narrow,0.0334195000032195
01,2,6,23,16.0,19.0,narrow,1.017967800002225
01,2,6,24,11.0,14.0,narrow,0.7342036999980337
01,2,6,25,18.0,25.0,narrow,0.5172401000017999
01,2,6,26,12.0,19.0,narrow,1.2844777999998769
01,2,6,27,14.0,18.0,narrow,0.0996059999997669
01,2,6,28,21.0,20.0,narrow,1.4678975000024366
01,2,6,29,18.0,18.0,narrow,1.0680135999973572
01,2,6,30,23.0,23.0,narrow,1.0844839999990654
01,2,7,1,20.0,19.0,narrow,0.1002542000023822
01,2,7,2,25.0,22.0,narrow,0.3334552999986044
01,2,7,3,23.0,20.0,narrow,1.2513393000008364
01,2,7,4,11.0,14.0,narrow,1.1346479000021643
01,2,7,5,11.0,13.0,narrow,1.2182462999990094
01,2,7,6,22.0,21.0,narrow,0.0667260000009264
01,2,7,7,20.0,22.0,narrow,1.7018765999964671
01,2,7,8,24.0,23.0,narrow,1.3477615999981936
01,2,7,9,22.0,25.0,narrow,1.051312900002813
01,2,7,10,19.0,19.0,narrow,0.133292700000311
01,2,7,11,12.0,17.0,narrow,1.1510592000013276
01,2,7,12,14.0,19.0,narrow,1.3516601999981503
01,2,7,13,20.0,20.0,narrow,1.7691248000010091
01,2,7,14,19.0,18.0,narrow,1.3176977000002807
01,2,7,15,24.0,20.0,narrow,0.4171628000003693
01,2,7,16,20.0,21.0,narrow,1.0180528999990202
01,2,7,17,14.0,18.0,narrow,0.2335949999978765
01,2,7,18,20.0,18.0,narrow,0.35015100000237
01,2,7,19,14.0,17.0,narrow,1.5515220000015688
01,2,7,20,10.0,16.0,narrow,0.7843160999982501
01,2,7,21,23.0,25.0,narrow,1.1512513999987275
01,2,7,22,15.0,20.0,narrow,1.5515937999989546
01,2,7,23,16.0,19.0,narrow,0.6506695999996737
01,2,7,24,16.0,17.0,narrow,1.768819099997927
01,2,7,25,14.0,17.0,narrow,1.1013806000009936
01,2,7,26,17.0,20.0,narrow,1.5351399999999558
01,2,7,27,17.0,19.0,narrow,1.2015549000025203
01,2,7,28,25.0,25.0,narrow,0.7163572000026761
01,2,7,29,16.0,18.0,narrow,1.0513143999996828
01,2,7,30,20.0,22.0,narrow,0.1337626000022282
01,2,8,1,24.0,19.0,narrow,1.0013155999986338
01,2,8,2,24.0,21.0,narrow,1.3682344000008015
01,2,8,3,20.0,20.0,narrow,0.6671220999996876
01,2,8,4,22.0,21.0,narrow,0.1129060000021127
01,2,8,5,10.0,10.0,narrow,0.5839401000012003
01,2,8,6,10.0,15.0,narrow,0.5340642000010121
01,2,8,7,11.0,16.0,narrow,0.3504890000003797
01,2,8,8,13.0,19.0,narrow,0.6169744999970135
01,2,8,9,16.0,21.0,narrow,1.6183991999969294
01,2,8,10,12.0,17.0,narrow,0.5003553999995347
01,2,8,11,15.0,20.0,narrow,0.0667810999984794
01,2,8,12,22.0,25.0,narrow,0.8343448000014178
01,2,8,13,12.0,18.0,narrow,0.8510954000012134
01,2,8,14,13.0,18.0,narrow,1.3344232000017655
01,2,8,15,24.0,23.0,narrow,0.7142516999992949
01,2,8,16,16.0,23.0,narrow,0.797234199999366
01,2,8,17,18.0,19.0,narrow,0.7342499000005773
01,2,8,18,25.0,25.0,narrow,0.9510632999990776
01,2,8,19,16.0,19.0,narrow,1.98621120000098
01,2,8,20,18.0,21.0,narrow,0.6307549999983166
01,2,8,21,22.0,20.0,narrow,0.6003275000002759
01,2,8,22,21.0,21.0,narrow,1.7853057000029366
01,2,8,23,17.0,20.0,narrow,2.218581400000403
01,2,8,24,11.0,14.0,narrow,0.0835422999989532
01,2,8,25,18.0,19.0,narrow,1.151136000000406
01,2,8,26,12.0,15.0,narrow,0.1667348999981186
01,2,8,27,13.0,17.0,narrow,1.16801359999954
01,2,8,28,18.0,20.0,narrow,1.3512270000028366
01,2,8,29,14.0,20.0,narrow,1.4179409999997006
01,2,8,30,17.0,19.0,narrow,0.0167428000022482
02,1,1,1,23.0,30.0,wide,0.3470139999990351
02,1,1,2,13.0,16.0,wide,1.731692800000019
02,1,1,3,22.0,28.0,wide,1.3345564999981434
02,1,1,4,40.0,37.0,wide,1.935211200001504
02,1,1,5,30.0,,wide,
02,1,1,6,28.0,30.0,wide,1.3848544000029506
02,1,1,7,22.0,28.0,wide,1.0010859000030905
02,1,1,8,29.0,32.0,wide,0.7677170000024489
02,1,1,9,20.0,25.0,wide,1.33484529999987
02,1,1,10,14.0,18.0,wide,1.1680918000020029
02,1,1,11,29.0,30.0,wide,0.317009299997153
02,1,1,12,25.0,29.0,wide,0.7840867000013532
02,1,1,13,23.0,29.0,wide,0.2003279000018665
02,1,1,14,33.0,33.0,wide,1.4849541000003228
02,1,1,15,14.0,20.0,wide,0.643583299999591
02,1,1,16,34.0,35.0,wide,0.1802225000028556
02,1,1,17,28.0,32.0,wide,1.685333299999911
02,1,1,18,30.0,27.0,wide,0.4804944000024989
02,1,1,19,37.0,29.0,wide,0.1638844999979483
02,1,1,20,40.0,38.0,wide,1.268057199999021
02,1,1,21,39.0,30.0,wide,1.9351849000013317
02,1,1,22,12.0,18.0,wide,1.50123209999947
02,1,1,23,38.0,28.0,wide,1.6184597999999824
02,1,1,24,23.0,24.0,wide,1.4847742000019934
02,1,1,25,10.0,10.0,wide,0.511077800001658
02,1,1,26,38.0,36.0,wide,0.2468879000007291
02,1,1,27,21.0,25.0,wide,0.780995900000562
02,1,1,28,13.0,17.0,wide,0.4637328999997407
02,1,1,29,26.0,32.0,wide,0.7975667999999132
02,1,1,30,37.0,36.0,wide,0.2169404999986
02,1,2,1,12.0,13.0,wide,1.8353170000009411
02,1,2,2,16.0,21.0,wide,0.0803531999990809
02,1,2,3,38.0,35.0,wide,0.7508368999988306
02,1,2,4,29.0,31.0,wide,0.4504777999973157
02,1,2,5,14.0,18.0,wide,1.3337082999969423
02,1,2,6,17.0,23.0,wide,1.3015761999995448
02,1,2,7,24.0,33.0,wide,1.735298600000533
02,1,2,8,37.0,36.0,wide,1.7017529000004288
02,1,2,9,25.0,30.0,wide,1.3014834000023257
02,1,2,10,10.0,10.0,wide,1.2515964999984135
02,1,2,11,32.0,34.0,wide,1.6516696999970009
02,1,2,12,32.0,32.0,wide,1.127551500001573
02,1,2,13,26.0,29.0,wide,0.526842499999475
02,1,2,14,39.0,30.0,wide,1.5183940999995684
02,1,2,15,10.0,10.0,wide,1.768390499997622
02,1,2,16,23.0,25.0,wide,0.7508285000003525
02,1,2,17,25.0,28.0,wide,1.8683677000008176
02,1,2,18,13.0,22.0,wide,1.6518181000028562
02,1,2,19,14.0,18.0,wide,0.6672925999992003
02,1,2,20,15.0,18.0,wide,1.2176843999986886
02,1,2,21,15.0,22.0,wide,2.219011599998339
02,1,2,22,16.0,24.0,wide,0.9008081000029052
02,1,2,23,28.0,28.0,wide,0.3335866000015812
02,1,2,24,13.0,20.0,wide,0.233466400000907
02,1,2,25,18.0,24.0,wide,1.3015640000012354
02,1,2,26,20.0,24.0,wide,1.985450399999536
02,1,2,27,30.0,29.0,wide,1.3344623999983014
02,1,2,28,19.0,26.0,wide,0.8840837999996438
02,1,2,29,16.0,21.0,wide,1.4183075000000829
02,1,2,30,26.0,31.0,wide,1.0176331000002392
02,1,3,1,27.0,28.0,wide,1.2846913000030329
02,1,3,2,15.0,18.0,wide,0.5338111000019126
02,1,3,3,10.0,14.0,wide,1.401515699999436
02,1,3,4,17.0,23.0,wide,1.484673599999951
02,1,3,5,33.0,29.0,wide,1.0001879000010376
02,1,3,6,15.0,18.0,wide,1.3012517000024673
02,1,3,7,31.0,28.0,wide,1.168006300002162
02,1,3,8,17.0,23.0,wide,0.6671208000007027
02,1,3,9,29.0,29.0,wide,2.0665535000007367
02,1,3,10,27.0,27.0,wide,1.6682013999998162
02,1,3,11,17.0,20.0,wide,1.4015173999978288
02,1,3,12,16.0,22.0,wide,1.668203100001847
02,1,3,13,18.0,21.0,wide,1.2179675999977917
02,1,3,14,26.0,30.0,wide,0.8174412999978813
02,1,3,15,27.0,29.0,wide,1.084520899999916
02,1,3,16,26.0,28.0,wide,1.0845461999997497
02,1,3,17,20.0,25.0,wide,2.21879059999992
02,1,3,18,33.0,33.0,wide,0.7509449000026507
02,1,3,19,16.0,30.0,wide,0.9008131000009598
02,1,3,20,32.0,30.0,wide,0.5671589999983553
02,1,3,21,26.0,30.0,wide,1.1511357000017597
02,1,3,22,33.0,30.0,wide,0.0638160999988031
02,1,3,23,39.0,34.0,wide,1.084833199998684
02,1,3,24,19.0,24.0,wide,0.3669769000007363
02,1,3,25,20.0,20.0,wide,1.3515527000017755
02,1,3,26,28.0,32.0,wide,1.584105099998851
02,1,3,27,26.0,27.0,wide,0.8175686000031419
02,1,3,28,22.0,23.0,wide,1.2344684999989113
02,1,3,29,11.0,12.0,wide,1.5847243000025628
02,1,3,30,28.0,25.0,wide,1.218190700001287
02,1,4,1,16.0,19.0,wide,1.2013252999968245
02,1,4,2,22.0,22.0,wide,1.1512265000019395
02,1,4,3,13.0,20.0,wide,1.3348174999991895
02,1,4,4,36.0,31.0,wide,0.4000849000003654
02,1,4,5,18.0,23.0,wide,0.933424400001968
02,1,4,6,37.0,30.0,wide,1.2846382999996422
02,1,4,7,25.0,26.0,wide,0.5671909999982745
02,1,4,8,26.0,25.0,wide,0.1167134999996051
02,1,4,9,36.0,34.0,wide,0.834372400000575
02,1,4,10,18.0,17.0,wide,1.3348890999986909
02,1,4,11,13.0,16.0,wide,0.5672023999977682
02,1,4,12,30.0,33.0,wide,1.4180882000000563
02,1,4,13,36.0,34.0,wide,1.8856298999999128
02,1,4,14,37.0,33.0,wide,1.6017570000003616
02,1,4,15,14.0,17.0,wide,0.3502334999975574
02,1,4,16,35.0,32.0,wide,1.2012405000023136
02,1,4,17,32.0,31.0,wide,2.034484199997678
02,1,4,18,28.0,28.0,wide,0.9828192000022682
02,1,4,19,12.0,23.0,wide,0.9510377000005974
02,1,4,20,35.0,28.0,wide,0.934211799998593
02,1,4,21,13.0,20.0,wide,0.900347700000566
02,1,4,22,21.0,23.0,wide,0.5632503999986511
02,1,4,23,24.0,28.0,wide,1.2145458000013605
02,1,4,24,39.0,34.0,wide,0.4337396000009903
02,1,4,25,27.0,21.0,wide,0.166695100000652
02,1,4,26,23.0,26.0,wide,1.0845622000015285
02,1,4,27,35.0,31.0,wide,1.8521617999977025
02,1,4,28,25.0,34.0,wide,1.8850185999981477
02,1,4,29,13.0,16.0,wide,0.6164351000006718
02,1,4,30,23.0,23.0,wide,0.0166083999974944
02,1,5,1,12.0,18.0,narrow,1.5518531999987315
02,1,5,2,10.0,10.0,narrow,0.8009913999994751
02,1,5,3,22.0,25.0,narrow,0.834372400000575
02,1,5,4,22.0,21.0,narrow,0.7001629999977013
02,1,5,5,21.0,25.0,narrow,0.78445599999759
02,1,5,6,14.0,18.0,narrow,0.3802532000008796
02,1,5,7,22.0,25.0,narrow,0.7342935999986366
02,1,5,8,11.0,16.0,narrow,0.7174836000012874
02,1,5,9,19.0,24.0,narrow,1.234512499999255
02,1,5,10,12.0,15.0,narrow,0.5339316000026884
02,1,5,11,15.0,20.0,narrow,0.0332534000008308
02,1,5,12,10.0,10.0,narrow,0.7510608000011416
02,1,5,13,25.0,23.0,narrow,1.9184409999979837
02,1,5,14,11.0,10.0,narrow,1.9519691999994393
02,1,5,15,14.0,17.0,narrow,0.3836111999989953
02,1,5,16,12.0,16.0,narrow,1.301495600000635
02,1,5,17,24.0,23.0,narrow,1.9351105999994616
02,1,5,18,11.0,15.0,narrow,1.4850804999987304
02,1,5,19,11.0,16.0,narrow,1.0012176000018371
02,1,5,20,25.0,25.0,narrow,0.7341045000030135
02,1,5,21,13.0,15.0,narrow,1.0674023999999918
02,1,5,22,22.0,21.0,narrow,1.2683458999999857
02,1,5,23,21.0,25.0,narrow,0.316840499999671
02,1,5,24,17.0,17.0,narrow,1.5016290999992634
02,1,5,25,22.0,18.0,narrow,0.4337870000017574
02,1,5,26,25.0,21.0,narrow,0.8341779999973369
02,1,5,27,21.0,21.0,narrow,0.9842134999998962
02,1,5,28,23.0,25.0,narrow,0.283879299997352
02,1,5,29,11.0,15.0,narrow,1.6012038999979268
02,1,5,30,21.0,20.0,narrow,0.6006574999992154
02,1,6,1,24.0,22.0,narrow,0.6006663000007393
02,1,6,2,14.0,19.0,narrow,1.4014396999991732
02,1,6,3,19.0,18.0,narrow,1.1845085000022664
02,1,6,4,19.0,19.0,narrow,0.817480900001101
02,1,6,5,22.0,25.0,narrow,0.9175839999988966
02,1,6,6,22.0,18.0,narrow,1.1008099999999104
02,1,6,7,14.0,19.0,narrow,0.0169378999999025
02,1,6,8,22.0,25.0,narrow,0.1667658999976993
02,1,6,9,25.0,25.0,narrow,0.6173147000008612
02,1,6,10,21.0,23.0,narrow,0.9509880999976305
02,1,6,11,23.0,21.0,narrow,0.2970946999994339
02,1,6,12,22.0,23.0,narrow,0.313718900000822
02,1,6,13,13.0,16.0,narrow,0.8675980999978492
02,1,6,14,14.0,19.0,narrow,1.9353186000007552
02,1,6,15,20.0,21.0,narrow,1.6853924000024565
02,1,6,16,23.0,25.0,narrow,0.8844578999996884
02,1,6,17,16.0,18.0,narrow,0.6172365999991598
02,1,6,18,11.0,10.0,narrow,1.3013347999985854
02,1,6,19,19.0,20.0,narrow,1.067444999996951
02,1,6,20,19.0,22.0,narrow,0.983574599998974
02,1,6,21,11.0,12.0,narrow,1.151028000000224
02,1,6,22,15.0,16.0,narrow,0.2337695000023814
02,1,6,23,14.0,,narrow,
02,1,6,24,22.0,25.0,narrow,0.8177150000010442
02,1,6,25,15.0,16.0,narrow,1.184499400002096
02,1,6,26,10.0,17.0,narrow,0.8673011999999289
02,1,6,27,24.0,25.0,narrow,0.9678205000018352
02,1,6,28,16.0,20.0,narrow,0.7506960000027902
02,1,6,29,23.0,22.0,narrow,0.3004828999983147
02,1,6,30,18.0,18.0,narrow,0.0167612000004737
02,1,7,1,24.0,21.0,narrow,0.7341736999987916
02,1,7,2,17.0,20.0,narrow,1.3512919999993755
02,1,7,3,21.0,25.0,narrow,0.2501454000012018
02,1,7,4,11.0,15.0,narrow,0.0333807999995769
02,1,7,5,13.0,15.0,narrow,0.6008511999971233
02,1,7,6,19.0,19.0,narrow,1.0843751999964295
02,1,7,7,19.0,23.0,narrow,0.7008151000009093
02,1,7,8,17.0,21.0,narrow,1.4179328999998688
02,1,7,9,24.0,23.0,narrow,0.9678604000000632
02,1,7,10,19.0,25.0,narrow,0.901274600000761
02,1,7,11,14.0,19.0,narrow,1.001251000001503
02,1,7,12,11.0,14.0,narrow,1.4346920999996655
02,1,7,13,16.0,21.0,narrow,1.2011827999995148
02,1,7,14,22.0,23.0,narrow,0.2168550999995204
02,1,7,15,13.0,15.0,narrow,2.1354031000009854
02,1,7,16,14.0,17.0,narrow,1.500759200000175
02,1,7,17,18.0,21.0,narrow,0.917386399996758
02,1,7,18,14.0,19.0,narrow,1.5515537999999651
02,1,7,19,16.0,23.0,narrow,1.034404000001814
02,1,7,20,23.0,20.0,narrow,0.8339273000019602
02,1,7,21,12.0,15.0,narrow,0.4672468999997363
02,1,7,22,18.0,25.0,narrow,1.201478999999381
02,1,7,23,15.0,20.0,narrow,1.8517733000007863
02,1,7,24,18.0,15.0,narrow,1.6184886999981245
02,1,7,25,22.0,25.0,narrow,1.03454899999997
02,1,7,26,15.0,20.0,narrow,0.7841255999992427
02,1,7,27,23.0,22.0,narrow,0.6339821000001393
02,1,7,28,21.0,22.0,narrow,1.417955199998687
02,1,7,29,11.0,15.0,narrow,1.6685106000004453
02,1,7,30,14.0,20.0,narrow,0.1303276999969966
02,1,8,1,21.0,25.0,narrow,0.2002109000022756
02,1,8,2,18.0,21.0,narrow,0.2502742999968177
02,1,8,3,22.0,25.0,narrow,0.9343952999988688
02,1,8,4,11.0,12.0,narrow,0.0500352000017301
02,1,8,5,18.0,18.0,narrow,0.400490300002275
02,1,8,6,16.0,22.0,narrow,0.6673067000010633
02,1,8,7,20.0,24.0,narrow,0.3669964000000618
02,1,8,8,18.0,21.0,narrow,0.3170738000007986
02,1,8,9,16.0,20.0,narrow,0.3831774000027508
02,1,8,10,20.0,19.0,narrow,1.1346623999997971
02,1,8,11,12.0,14.0,narrow,1.6859800000020186
02,1,8,12,25.0,20.0,narrow,0.9508985000029496
02,1,8,13,17.0,21.0,narrow,0.6174025000000256
02,1,8,14,10.0,15.0,narrow,0.867599600001995
02,1,8,15,14.0,20.0,narrow,0.7844021999990218
02,1,8,16,18.0,21.0,narrow,1.734957299999223
02,1,8,17,19.0,22.0,narrow,1.7014099999978498
02,1,8,18,10.0,14.0,narrow,0.4170440999987477
02,1,8,19,23.0,25.0,narrow,0.9343953999996302
02,1,8,20,15.0,22.0,narrow,0.843558499997016
02,1,8,21,20.0,23.0,narrow,0.3471504000008281
02,1,8,22,16.0,23.0,narrow,1.3183056999987457
02,1,8,23,20.0,23.0,narrow,1.8849966000016136
02,1,8,24,17.0,20.0,narrow,1.3149239999984277
02,1,8,25,11.0,,narrow,
02,1,8,26,13.0,22.0,narrow,1.1180238999986614
02,1,8,27,24.0,25.0,narrow,0.3337100999997346
02,1,8,28,19.0,22.0,narrow,0.6339938999990409
02,1,8,29,17.0,23.0,narrow,1.334896000000299
02,1,8,30,11.0,15.0,narrow,0.3171486999999615
02,2,1,1,18.0,17.0,narrow,1.1175053999977536
02,2,1,2,17.0,18.0,narrow,2.0517145000012533
02,2,1,3,23.0,22.0,narrow,1.084358299998712
02,2,1,4,11.0,10.0,narrow,0.8009310999987065
02,2,1,5,10.0,10.0,narrow,0.7843786999983422
02,2,1,6,21.0,20.0,narrow,1.0324597999970138
02,2,1,7,17.0,19.0,narrow,0.6336889000012889
02,2,1,8,22.0,25.0,narrow,0.5672073000023374
02,2,1,9,14.0,15.0,narrow,1.1100411000006716
02,2,1,10,15.0,18.0,narrow,1.5015724999975646
02,2,1,11,22.0,23.0,narrow,1.4351619999979448
02,2,1,12,24.0,21.0,narrow,1.0178814999999304
02,2,1,13,13.0,13.0,narrow,1.2847418000019388
02,2,1,14,10.0,10.0,narrow,0.5171095000005153
02,2,1,15,23.0,24.0,narrow,0.9010925000002316
02,2,1,16,10.0,12.0,narrow,0.9344735000013316
02,2,1,17,17.0,16.0,narrow,1.5513787000018056
02,2,1,18,12.0,13.0,narrow,0.4837463000003481
02,2,1,19,20.0,25.0,narrow,0.6999270999986038
02,2,1,20,25.0,24.0,narrow,0.9010235000023386
02,2,1,21,22.0,21.0,narrow,1.0513088999978208
02,2,1,22,22.0,20.0,narrow,0.5838632000013604
02,2,1,23,23.0,23.0,narrow,1.384853899999143
02,2,1,24,14.0,17.0,narrow,2.002145800001017
02,2,1,25,13.0,19.0,narrow,1.4679003999990528
02,2,1,26,14.0,20.0,narrow,1.968769400002202
02,2,1,27,15.0,18.0,narrow,1.401212899996608
02,2,1,28,19.0,17.0,narrow,1.4671545999990483
02,2,1,29,14.0,14.0,narrow,0.6673632999991241
02,2,1,30,12.0,10.0,narrow,0.9512154000003648
02,2,2,1,17.0,19.0,narrow,1.0512567999976454
02,2,2,2,13.0,15.0,narrow,0.0664819999983592
02,2,2,3,16.0,19.0,narrow,1.0811974999996892
02,2,2,4,24.0,24.0,narrow,0.3136075000002165
02,2,2,5,24.0,20.0,narrow,0.8141527000007045
02,2,2,6,10.0,10.0,narrow,2.166274399998656
02,2,2,7,24.0,23.0,narrow,0.9340200000006008
02,2,2,8,17.0,16.0,narrow,0.0333836999998311
02,2,2,9,19.0,20.0,narrow,1.2679606000019703
02,2,2,10,20.0,22.0,narrow,0.5672680000025139
02,2,2,11,15.0,17.0,narrow,0.3670824000000721
02,2,2,12,20.0,16.0,narrow,1.1344567999985884
02,2,2,13,16.0,18.0,narrow,0.7840832999972918
02,2,2,14,10.0,18.0,narrow,0.400309799999377
02,2,2,15,17.0,19.0,narrow,1.3346227999973053
02,2,2,16,22.0,19.0,narrow,1.4849770000000715
02,2,2,17,17.0,17.0,narrow,1.034440999999788
02,2,2,18,15.0,17.0,narrow,0.9804347999997844
02,2,2,19,19.0,21.0,narrow,1.034631000002264
02,2,2,20,19.0,18.0,narrow,1.5681661000016902
02,2,2,21,23.0,21.0,narrow,1.284290100000362
02,2,2,22,15.0,19.0,narrow,1.5015717999995104
02,2,2,23,25.0,25.0,narrow,0.8845443999998679
02,2,2,24,23.0,20.0,narrow,1.4349999000005482
02,2,2,25,22.0,19.0,narrow,1.8483400000004624
02,2,2,26,16.0,17.0,narrow,0.5161254999984521
02,2,2,27,17.0,19.0,narrow,0.9342379000008804
02,2,2,28,24.0,25.0,narrow,0.8341371999995317
02,2,2,29,13.0,14.0,narrow,1.4179809000015666
02,2,2,30,16.0,15.0,narrow,1.1510827999991309
02,2,3,1,20.0,18.0,narrow,0.0633459999990009
02,2,3,2,16.0,19.0,narrow,0.3134661999974923
02,2,3,3,11.0,12.0,narrow,1.5013161999995646
02,2,3,4,10.0,15.0,narrow,0.3637624000002688
02,2,3,5,13.0,17.0,narrow,1.23460310000155
02,2,3,6,15.0,18.0,narrow,0.9642172000021674
02,2,3,7,11.0,15.0,narrow,1.101247799997509
02,2,3,8,20.0,22.0,narrow,0.1169441999991249
02,2,3,9,12.0,18.0,narrow,0.5338082999987819
02,2,3,10,14.0,17.0,narrow,1.5845595999999205
02,2,3,11,19.0,23.0,narrow,0.5338881999996374
02,2,3,12,22.0,25.0,narrow,0.5999284000026819
02,2,3,13,25.0,23.0,narrow,1.5350236000012956
02,2,3,14,21.0,19.0,narrow,0.950194699998974
02,2,3,15,11.0,10.0,narrow,0.0501004000034299
02,2,3,16,17.0,22.0,narrow,1.3347643999986758
02,2,3,17,19.0,21.0,narrow,1.65173760000107
02,2,3,18,24.0,25.0,narrow,0.9846065999990968
02,2,3,19,13.0,17.0,narrow,1.868402700001752
02,2,3,20,10.0,18.0,narrow,1.264648500000476
02,2,3,21,22.0,21.0,narrow,0.1803538999993179
02,2,3,22,18.0,21.0,narrow,0.1303055999997013
02,2,3,23,24.0,21.0,narrow,0.6801897999976063
02,2,3,24,18.0,17.0,narrow,0.7635238000002573
02,2,3,25,13.0,15.0,narrow,0.5804798999997729
02,2,3,26,25.0,25.0,narrow,0.7844306000006327
02,2,3,27,17.0,22.0,narrow,0.1169034000013198
02,2,3,28,22.0,21.0,narrow,1.55187769999975
02,2,3,29,15.0,13.0,narrow,0.7508674999990035
02,2,3,30,18.0,18.0,narrow,0.1671313000006193
02,2,4,1,24.0,23.0,narrow,0.8843932000017958
02,2,4,2,11.0,10.0,narrow,0.9010039999993752
02,2,4,3,18.0,23.0,narrow,1.1847283000024618
02,2,4,4,12.0,19.0,narrow,1.4847737000018242
02,2,4,5,14.0,17.0,narrow,1.050937400003022
02,2,4,6,11.0,16.0,narrow,0.8675785999985237
02,2,4,7,13.0,15.0,narrow,0.5672856000019237
02,2,4,8,23.0,21.0,narrow,1.451402399998187
02,2,4,9,21.0,23.0,narrow,0.2135984999986249
02,2,4,10,17.0,19.0,narrow,1.4980008999991696
02,2,4,11,20.0,17.0,narrow,1.3171163000006345
02,2,4,12,20.0,19.0,narrow,1.001181200001156
02,2,4,13,17.0,19.0,narrow,1.5339579999999842
02,2,4,14,12.0,18.0,narrow,1.5183804999978747
02,2,4,15,10.0,12.0,narrow,1.8182412999994997
02,2,4,16,22.0,25.0,narrow,0.2502334000018891
02,2,4,17,17.0,17.0,narrow,1.117649199997686
02,2,4,18,12.0,16.0,narrow,0.1500979000011284
02,2,4,19,21.0,19.0,narrow,0.0667080999992322
02,2,4,20,14.0,16.0,narrow,1.0843954000010854
02,2,4,21,23.0,22.0,narrow,0.1834433000003628
02,2,4,22,14.0,21.0,narrow,1.067634499999258
02,2,4,23,24.0,25.0,narrow,0.1169594999992114
02,2,4,24,17.0,16.0,narrow,1.4505315000023984
02,2,4,25,15.0,17.0,narrow,1.0105441000014252
02,2,4,26,24.0,23.0,narrow,1.3847619000007398
02,2,4,27,23.0,21.0,narrow,1.1678422000004502
02,2,4,28,22.0,17.0,narrow,1.31792889999997
02,2,4,29,19.0,19.0,narrow,0.9007945000012114
02,2,4,30,15.0,17.0,narrow,0.4452725999981339
02,2,5,1,21.0,19.0,wide,1.451648199999909
02,2,5,2,14.0,16.0,wide,1.6685386000026483
02,2,5,3,35.0,35.0,wide,1.584944500002166
02,2,5,4,20.0,22.0,wide,1.0106020999992325
02,2,5,5,32.0,32.0,wide,1.183728700001666
02,2,5,6,37.0,37.0,wide,0.9175198000011732
02,2,5,7,27.0,30.0,wide,0.6003003000005265
02,2,5,8,37.0,40.0,wide,1.2515578999991703
02,2,5,9,10.0,10.0,wide,0.0334165000022039
02,2,5,10,37.0,34.0,wide,1.2510191000001214
02,2,5,11,35.0,30.0,wide,0.5339611000017612
02,2,5,12,26.0,29.0,wide,1.034331700000621
02,2,5,13,19.0,22.0,wide,1.1003397000022233
02,2,5,14,37.0,40.0,wide,0.8501722000000882
02,2,5,15,11.0,10.0,wide,0.6506960000006075
02,2,5,16,13.0,21.0,wide,1.368179599998257
02,2,5,17,38.0,36.0,wide,0.1301325999993423
02,2,5,18,22.0,25.0,wide,0.0467924000004131
02,2,5,19,30.0,35.0,wide,0.2301191999977163
02,2,5,20,20.0,26.0,wide,0.2635779999982333
02,2,5,21,39.0,36.0,wide,1.1846274999988964
02,2,5,22,37.0,32.0,wide,0.4337506999981997
02,2,5,23,40.0,31.0,wide,0.7340656999986095
02,2,5,24,19.0,23.0,wide,1.3682697999975062
02,2,5,25,14.0,17.0,wide,1.4512620000023162
02,2,5,26,34.0,31.0,wide,0.717407700001786
02,2,5,27,20.0,19.0,wide,1.0310022000012395
02,2,5,28,37.0,39.0,wide,0.0501102999987779
02,2,5,29,13.0,15.0,wide,0.3834607000026153
02,2,5,30,12.0,14.0,wide,0.1666804000014963
02,2,6,1,33.0,36.0,wide,0.1135742999977083
02,2,6,2,39.0,40.0,wide,0.7509305000021413
02,2,6,3,39.0,34.0,wide,1.4849222999982885
02,2,6,4,24.0,23.0,wide,1.568157699999574
02,2,6,5,15.0,16.0,wide,1.551679599997442
02,2,6,6,34.0,30.0,wide,1.4684690000030969
02,2,6,7,16.0,23.0,wide,0.4337044000021706
02,2,6,8,24.0,26.0,wide,1.7684992999966198
02,2,6,9,25.0,26.0,wide,0.4163575999991735
02,2,6,10,17.0,26.0,wide,1.2013316999982635
02,2,6,11,37.0,32.0,wide,1.3681184999986726
02,2,6,12,23.0,27.0,wide,1.351239200001146
02,2,6,13,20.0,22.0,wide,0.2334960000007413
02,2,6,14,34.0,32.0,wide,0.0835475999992922
02,2,6,15,15.0,17.0,wide,2.167574800001603
02,2,6,16,26.0,24.0,wide,1.3347710000016375
02,2,6,17,13.0,18.0,wide,0.5336016000001109
02,2,6,18,15.0,19.0,wide,1.251555200000439
02,2,6,19,40.0,40.0,wide,0.43038499999966
02,2,6,20,28.0,29.0,wide,1.064348299998528
02,2,6,21,19.0,26.0,wide,0.9139529000021868
02,2,6,22,25.0,22.0,wide,1.0679044999997132
02,2,6,23,32.0,32.0,wide,1.431402900001558
02,2,6,24,22.0,25.0,wide,1.9187523999971745
02,2,6,25,40.0,40.0,wide,0.4839684999969904
02,2,6,26,31.0,32.0,wide,0.5001384999995935
02,2,6,27,13.0,10.0,wide,0.4674521000015375
02,2,6,28,33.0,33.0,wide,0.7839586000009149
02,2,6,29,24.0,34.0,wide,1.18373050000082
02,2,6,30,36.0,35.0,wide,1.2337173000014443
02,2,7,1,15.0,20.0,wide,1.417977699999028
02,2,7,2,11.0,10.0,wide,0.4170680000024731
02,2,7,3,31.0,35.0,wide,1.1179946999982349
02,2,7,4,14.0,17.0,wide,1.417722700000013
02,2,7,5,38.0,32.0,wide,0.817620400001033
02,2,7,6,18.0,20.0,wide,1.6184812000028614
02,2,7,7,31.0,28.0,wide,0.2470769999999902
02,2,7,8,32.0,32.0,wide,1.3347990000002028
02,2,7,9,32.0,39.0,wide,0.2132788999988406
02,2,7,10,13.0,15.0,wide,0.5638727999976254
02,2,7,11,38.0,40.0,wide,2.1687372000014875
02,2,7,12,28.0,25.0,wide,1.5849056000006383
02,2,7,13,16.0,19.0,wide,0.4170134999985748
02,2,7,14,22.0,32.0,wide,1.1178641000005882
02,2,7,15,15.0,17.0,wide,0.1666179000021657
02,2,7,16,36.0,31.0,wide,1.3181781000021149
02,2,7,17,29.0,30.0,wide,1.3003382999995663
02,2,7,18,24.0,23.0,wide,0.4671678999984578
02,2,7,19,18.0,18.0,wide,1.6682325999972818
02,2,7,20,31.0,27.0,wide,2.235439000000042
02,2,7,21,34.0,32.0,wide,1.1342258000004222
02,2,7,22,35.0,29.0,wide,0.2001099999979487
02,2,7,23,30.0,30.0,wide,0.4336715999997977
02,2,7,24,20.0,23.0,wide,1.4015570000010484
02,2,7,25,39.0,40.0,wide,1.0678663000035158
02,2,7,26,20.0,19.0,wide,1.8854074999981096
02,2,7,27,39.0,36.0,wide,1.0332871999999045
02,2,7,28,35.0,33.0,wide,1.3681953999985126
02,2,7,29,14.0,17.0,wide,0.3637746000022162
02,2,7,30,26.0,25.0,wide,0.7808498999984295
02,2,8,1,38.0,35.0,wide,1.418218999999226
02,2,8,2,16.0,16.0,wide,1.4013857999998436
02,2,8,3,28.0,30.0,wide,1.3348092999985963
02,2,8,4,29.0,28.0,wide,0.4969983000009961
02,2,8,5,19.0,26.0,wide,0.0802084999995713
02,2,8,6,27.0,27.0,wide,1.9848200000014913
02,2,8,7,15.0,18.0,wide,1.3849068999988958
02,2,8,8,23.0,25.0,wide,0.930963700000575
02,2,8,9,16.0,19.0,wide,1.418206199999986
02,2,8,10,13.0,11.0,wide,1.468006899998727
02,2,8,11,24.0,23.0,wide,0.683987000000343
02,2,8,12,40.0,34.0,wide,0.333645599999727
02,2,8,13,12.0,13.0,wide,1.3848510999996506
02,2,8,14,15.0,21.0,wide,1.6680873000004794
02,2,8,15,25.0,31.0,wide,1.0176720000017667
02,2,8,16,19.0,21.0,wide,0.2503079999987676
02,2,8,17,13.0,15.0,wide,1.8508436000010988
02,2,8,18,23.0,20.0,wide,1.7681057000008875
02,2,8,19,10.0,,wide,
02,2,8,20,36.0,30.0,wide,0.784220000001369
02,2,8,21,32.0,31.0,wide,1.4848679000024276
02,2,8,22,40.0,35.0,wide,0.2670891000016127
02,2,8,23,31.0,29.0,wide,1.3503722999994352
02,2,8,24,27.0,28.0,wide,1.5846932999993442
02,2,8,25,19.0,23.0,wide,1.3012645000017071
02,2,8,26,31.0,30.0,wide,0.849992999999813
02,2,8,27,20.0,26.0,wide,1.3518334000000325
02,2,8,28,39.0,37.0,wide,0.3803105000006326
02,2,8,29,23.0,28.0,wide,0.827204500001244
02,2,8,30,16.0,22.0,wide,0.3337415999994846
03,1,1,1,18.0,16.0,narrow,1.5349923999999646
03,1,1,2,14.0,19.0,narrow,0.0503337999999757
03,1,1,3,24.0,18.0,narrow,1.634860099999969
03,1,1,4,25.0,18.0,narrow,0.9007234000000608
03,1,1,5,18.0,15.0,narrow,0.9340886999999612
03,1,1,6,20.0,,narrow,
03,1,1,7,16.0,13.0,narrow,1.1000899999999092
03,1,1,8,16.0,18.0,narrow,1.7687029999999595
03,1,1,9,19.0,21.0,narrow,0.6004418999999643
03,1,1,10,24.0,25.0,narrow,0.6682038999999804
03,1,1,11,13.0,10.0,narrow,1.384971999999948
03,1,1,12,16.0,10.0,narrow,1.3345247000000882
03,1,1,13,18.0,13.0,narrow,1.3182561999999507
03,1,1,14,10.0,10.0,narrow,1.134647100000052
03,1,1,15,24.0,22.0,narrow,1.4851648000000068
03,1,1,16,14.0,14.0,narrow,1.0342451999999869
03,1,1,17,12.0,10.0,narrow,0.9176230999999008
03,1,1,18,10.0,10.0,narrow,0.6172467999999753
03,1,1,19,19.0,19.0,narrow,1.4016156999999794
03,1,1,20,21.0,20.0,narrow,0.6837980000000243
03,1,1,21,18.0,25.0,narrow,0.283534799999984
03,1,1,22,20.0,21.0,narrow,1.1515395000000126
03,1,1,23,21.0,18.0,narrow,0.2336374000000205
03,1,1,24,16.0,14.0,narrow,1.2680032999999185
03,1,1,25,25.0,19.0,narrow,1.2680066000000352
03,1,1,26,25.0,23.0,narrow,1.818846600000029
03,1,1,27,22.0,19.0,narrow,1.468381200000067
03,1,1,28,18.0,11.0,narrow,0.967482700000005
03,1,1,29,25.0,21.0,narrow,1.7185891999999967
03,1,1,30,13.0,11.0,narrow,0.0635150000000521
03,1,2,1,13.0,19.0,narrow,1.2347277999999733
03,1,2,2,16.0,14.0,narrow,0.9674729999999272
03,1,2,3,14.0,15.0,narrow,0.6665361000000303
03,1,2,4,12.0,10.0,narrow,1.1679097999999613
03,1,2,5,17.0,16.0,narrow,1.4014161000000058
03,1,2,6,25.0,25.0,narrow,1.1845824000001812
03,1,2,7,11.0,10.0,narrow,0.7841625000000931
03,1,2,8,14.0,14.0,narrow,0.5936573000001317
03,1,2,9,25.0,20.0,narrow,1.535055199999988
03,1,2,10,15.0,14.0,narrow,1.718176099999937
03,1,2,11,23.0,21.0,narrow,0.6339742000000115
03,1,2,12,14.0,15.0,narrow,1.284849200000053
03,1,2,13,18.0,18.0,narrow,1.0010221
03,1,2,14,23.0,20.0,narrow,0.1169234000001324
03,1,2,15,24.0,22.0,narrow,1.13474559999986
03,1,2,16,11.0,10.0,narrow,1.017973700000084
03,1,2,17,22.0,20.0,narrow,1.851944900000035
03,1,2,18,23.0,22.0,narrow,0.3668751000000156
03,1,2,19,23.0,17.0,narrow,0.7672871999998279
03,1,2,20,17.0,14.0,narrow,1.3347065000000384
03,1,2,21,14.0,16.0,narrow,0.6339504000000034
03,1,2,22,11.0,10.0,narrow,0.9344430000001012
03,1,2,23,11.0,10.0,narrow,1.1177488000000722
03,1,2,24,10.0,10.0,narrow,0.6163109999999961
03,1,2,25,14.0,12.0,narrow,0.9175820999998904
03,1,2,26,24.0,16.0,narrow,0.5998531999998704
03,1,2,27,10.0,12.0,narrow,0.1001670000000558
03,1,2,28,25.0,20.0,narrow,1.1177041999999346
03,1,2,29,25.0,22.0,narrow,1.1343577999998615
03,1,2,30,15.0,11.0,narrow,1.2347067000000609
03,1,3,1,18.0,15.0,narrow,1.7185126000001674
03,1,3,2,17.0,14.0,narrow,1.2347663000000466
03,1,3,3,20.0,20.0,narrow,0.6842662999999902
03,1,3,4,24.0,18.0,narrow,2.051911999999902
03,1,3,5,23.0,13.0,narrow,1.7185927000000447
03,1,3,6,16.0,13.0,narrow,0.5337385999998787
03,1,3,7,22.0,18.0,narrow,1.217619300000024
03,1,3,8,20.0,15.0,narrow,1.2346803000000364
03,1,3,9,19.0,17.0,narrow,0.5006005000000187
03,1,3,10,17.0,18.0,narrow,1.3681318999999803
03,1,3,11,25.0,21.0,narrow,1.7184108000001288
03,1,3,12,15.0,12.0,narrow,1.1511159000001498
03,1,3,13,17.0,11.0,narrow,1.3346701999998911
03,1,3,14,20.0,19.0,narrow,0.3505313000000569
03,1,3,15,22.0,20.0,narrow,2.0023085999998784
03,1,3,16,19.0,12.0,narrow,1.6182254999998804
03,1,3,17,19.0,13.0,narrow,1.0843236000000616
03,1,3,18,19.0,16.0,narrow,1.7352083999999195
03,1,3,19,17.0,13.0,narrow,1.1512021000000914
03,1,3,20,25.0,18.0,narrow,0.247188000000051
03,1,3,21,20.0,17.0,narrow,0.2469309000000521
03,1,3,22,20.0,13.0,narrow,0.964298299999882
03,1,3,23,19.0,16.0,narrow,1.7850615999998354
03,1,3,24,17.0,15.0,narrow,0.5505834999999024
03,1,3,25,22.0,20.0,narrow,1.7183158000000276
03,1,3,26,16.0,13.0,narrow,1.9683353000000352
03,1,3,27,22.0,17.0,narrow,1.734980200000109
03,1,3,28,16.0,13.0,narrow,1.534670799999958
03,1,3,29,15.0,20.0,narrow,1.3347676999999294
03,1,3,30,11.0,10.0,narrow,0.2501597000000402
03,1,4,1,24.0,19.0,narrow,1.7853161000000457
03,1,4,2,12.0,11.0,narrow,0.5171841999999742
03,1,4,3,19.0,11.0,narrow,1.218038000000206
03,1,4,4,23.0,20.0,narrow,1.4850333000001683
03,1,4,5,20.0,,narrow,
03,1,4,6,17.0,17.0,narrow,0.8842741999999362
03,1,4,7,18.0,,narrow,
03,1,4,8,23.0,15.0,narrow,0.9679666000001816
03,1,4,9,17.0,,narrow,
03,1,4,10,15.0,15.0,narrow,1.3016130999999405
03,1,4,11,12.0,11.0,narrow,1.38470180000013
03,1,4,12,17.0,19.0,narrow,0.8007591000000502
03,1,4,13,10.0,11.0,narrow,1.1184155999999348
03,1,4,14,23.0,20.0,narrow,1.4845541999998204
03,1,4,15,12.0,21.0,narrow,1.4843453999999383
03,1,4,16,15.0,17.0,narrow,0.5138716999999815
03,1,4,17,12.0,15.0,narrow,0.7305661000000327
03,1,4,18,16.0,17.0,narrow,2.0518848000001526
03,1,4,19,18.0,16.0,narrow,1.4513574000000062
03,1,4,20,22.0,19.0,narrow,0.6004729000001134
03,1,4,21,11.0,13.0,narrow,1.6683316000001014
03,1,4,22,14.0,16.0,narrow,0.3669787000001179
03,1,4,23,17.0,18.0,narrow,0.1337235999999393
03,1,4,24,25.0,,narrow,
03,1,4,25,18.0,17.0,narrow,1.0678232000000207
03,1,4,26,19.0,16.0,narrow,0.7307292000000416
03,1,4,27,15.0,15.0,narrow,1.731757000000016
03,1,4,28,20.0,15.0,narrow,0.7173668000000362
03,1,4,29,19.0,17.0,narrow,1.418290500000012
03,1,4,30,15.0,20.0,narrow,0.1336456999999882
03,1,5,1,11.0,18.0,wide,1.5182526999997208
03,1,5,2,26.0,27.0,wide,0.1636581000002479
03,1,5,3,39.0,35.0,wide,1.368242999999893
03,1,5,4,21.0,22.0,wide,1.9687121000001753
03,1,5,5,31.0,25.0,wide,1.651728699999694
03,1,5,6,34.0,32.0,wide,1.4850260999996865
03,1,5,7,25.0,22.0,wide,0.8673249000003125
03,1,5,8,36.0,30.0,wide,1.5348159000000123
03,1,5,9,20.0,18.0,wide,0.0166282000000137
03,1,5,10,27.0,14.0,wide,1.5348423000000366
03,1,5,11,30.0,29.0,wide,0.4003819999998086
03,1,5,12,35.0,34.0,wide,1.1175124000001233
03,1,5,13,28.0,27.0,wide,1.6348391000001357
03,1,5,14,39.0,34.0,wide,0.6505987000000459
03,1,5,15,33.0,28.0,wide,1.584879400000318
03,1,5,16,22.0,20.0,wide,0.8832612000001063
03,1,5,17,12.0,17.0,wide,1.2342518999998902
03,1,5,18,22.0,24.0,wide,1.6517773999999008
03,1,5,19,23.0,20.0,wide,0.3338383000000249
03,1,5,20,37.0,28.0,wide,1.6515893000000688
03,1,5,21,15.0,29.0,wide,0.7674489000000904
03,1,5,22,28.0,23.0,wide,1.2680623999999625
03,1,5,23,20.0,17.0,wide,0.3171949999996286
03,1,5,24,32.0,25.0,wide,1.5184033000000454
03,1,5,25,37.0,31.0,wide,0.600713000000269
03,1,5,26,22.0,19.0,wide,1.7683231000000887
03,1,5,27,33.0,22.0,wide,0.463738899999953
03,1,5,28,20.0,17.0,wide,2.0689751999998407
03,1,5,29,24.0,24.0,wide,2.1687279999996463
03,1,5,30,10.0,12.0,wide,0.8176416000001154
03,1,6,1,21.0,22.0,wide,0.0666856000002553
03,1,6,2,11.0,12.0,wide,0.7676665999997567
03,1,6,3,22.0,16.0,wide,1.8520183000000543
03,1,6,4,16.0,16.0,wide,1.6946188000001712
03,1,6,5,28.0,32.0,wide,1.368175500000234
03,1,6,6,28.0,22.0,wide,1.2845320999999783
03,1,6,7,10.0,10.0,wide,1.1842753999999331
03,1,6,8,30.0,19.0,wide,0.2336734999998952
03,1,6,9,35.0,31.0,wide,1.684887500000059
03,1,6,10,15.0,19.0,wide,1.9019195000000764
03,1,6,11,38.0,32.0,wide,1.0676969000001009
03,1,6,12,35.0,23.0,wide,1.0008836000001793
03,1,6,13,18.0,24.0,wide,0.3170112000002518
03,1,6,14,35.0,28.0,wide,1.885594100000162
03,1,6,15,24.0,23.0,wide,0.9341670999997403
03,1,6,16,20.0,19.0,wide,1.0510042999999314
03,1,6,17,13.0,15.0,wide,1.918784500000129
03,1,6,18,10.0,18.0,wide,0.2468312999999398
03,1,6,19,31.0,31.0,wide,0.9841926999997668
03,1,6,20,40.0,32.0,wide,0.3467335999998795
03,1,6,21,26.0,24.0,wide,0.9273115000000872
03,1,6,22,38.0,26.0,wide,0.3303123999999116
03,1,6,23,28.0,22.0,wide,0.3804254000001492
03,1,6,24,23.0,20.0,wide,1.1977687999997215
03,1,6,25,24.0,22.0,wide,1.5350558999998611
03,1,6,26,37.0,32.0,wide,1.9351345999998557
03,1,6,27,28.0,21.0,wide,0.8004608999999618
03,1,6,28,40.0,31.0,wide,0.6308568999997988
03,1,6,29,11.0,26.0,wide,1.7016456999999718
03,1,6,30,36.0,24.0,wide,0.1469921000002614
03,1,7,1,38.0,24.0,wide,1.0674638000000414
03,1,7,2,22.0,19.0,wide,0.6507790999999088
03,1,7,3,37.0,32.0,wide,1.751698800000213
03,1,7,4,13.0,10.0,wide,1.2345946000000367
03,1,7,5,31.0,31.0,wide,1.2844927000001007
03,1,7,6,10.0,10.0,wide,1.1512643000000935
03,1,7,7,14.0,15.0,wide,0.717204799999763
03,1,7,8,10.0,13.0,wide,1.1844507000000704
03,1,7,9,12.0,14.0,wide,1.232310200000029
03,1,7,10,18.0,23.0,wide,1.4849558000000798
03,1,7,11,35.0,33.0,wide,0.5172646999999415
03,1,7,12,14.0,17.0,wide,0.7506960999999137
03,1,7,13,23.0,21.0,wide,1.7019851999998536
03,1,7,14,27.0,31.0,wide,1.6015011000004051
03,1,7,15,24.0,22.0,wide,0.8676132000000507
03,1,7,16,19.0,22.0,wide,1.0678947999999764
03,1,7,17,19.0,24.0,wide,0.3337977999999566
03,1,7,18,28.0,33.0,wide,1.6184487999998964
03,1,7,19,39.0,,wide,
03,1,7,20,13.0,14.0,wide,0.6844639999999345
03,1,7,21,31.0,31.0,wide,1.7018097999998645
03,1,7,22,13.0,20.0,wide,1.5515972000002876
03,1,7,23,16.0,17.0,wide,1.534827100000257
03,1,7,24,22.0,24.0,wide,0.6268817000000126
03,1,7,25,11.0,14.0,wide,1.734856000000036
03,1,7,26,30.0,30.0,wide,1.2645133000000897
03,1,7,27,35.0,35.0,wide,0.4503129999998236
03,1,7,28,11.0,10.0,wide,1.2345788000002358
03,1,7,29,36.0,28.0,wide,0.1666644000001724
03,1,7,30,39.0,26.0,wide,0.5006589999998141
03,1,8,1,38.0,31.0,wide,0.4973354000003382
03,1,8,2,30.0,34.0,wide,0.3471951000001354
03,1,8,3,35.0,25.0,wide,1.217776800000138
03,1,8,4,25.0,22.0,wide,1.5517069000002266
03,1,8,5,35.0,28.0,wide,0.7138704999997572
03,1,8,6,10.0,11.0,wide,0.4304108000001179
03,1,8,7,13.0,18.0,wide,0.4972703999997065
03,1,8,8,37.0,26.0,wide,1.401409699999931
03,1,8,9,30.0,28.0,wide,0.480459499999597
03,1,8,10,39.0,34.0,wide,0.5304329000000507
03,1,8,11,32.0,31.0,wide,1.167822200000046
03,1,8,12,22.0,19.0,wide,0.3838129000000663
03,1,8,13,18.0,22.0,wide,0.4336795999997775
03,1,8,14,15.0,16.0,wide,1.8850118999998813
03,1,8,15,10.0,10.0,wide,0.5171080000000075
03,1,8,16,18.0,18.0,wide,0.116808199999923
03,1,8,17,19.0,23.0,wide,0.8175051000002895
03,1,8,18,20.0,29.0,wide,1.2848641999999018
03,1,8,19,36.0,29.0,wide,1.8185891000002812
03,1,8,20,24.0,21.0,wide,1.434777200000099
03,1,8,21,12.0,12.0,wide,1.6519156000003932
03,1,8,22,17.0,13.0,wide,1.518391800000245
03,1,8,23,18.0,14.0,wide,2.10210939999979
03,1,8,24,36.0,31.0,wide,1.6852185999996436
03,1,8,25,33.0,32.0,wide,1.6182095999997728
03,1,8,26,36.0,30.0,wide,1.047631200000069
03,1,8,27,36.0,28.0,wide,1.484593700000005
03,1,8,28,32.0,24.0,wide,0.7840565999999853
03,1,8,29,36.0,32.0,wide,1.367669300000216
03,1,8,30,30.0,21.0,wide,0.6504974999998012
03,2,1,1,34.0,,wide,
03,2,1,2,19.0,25.0,wide,1.651581800000713
03,2,1,3,10.0,10.0,wide,0.7171429000009084
03,2,1,4,30.0,31.0,wide,1.901501399999688
03,2,1,5,12.0,12.0,wide,1.3846140999994532
03,2,1,6,10.0,10.0,wide,1.2848154999992405
03,2,1,7,29.0,35.0,wide,0.8508817000001727
03,2,1,8,20.0,33.0,wide,2.2520842000012635
03,2,1,9,13.0,13.0,wide,0.714153199998691
03,2,1,10,30.0,23.0,wide,0.5470859999986715
03,2,1,11,25.0,31.0,wide,0.6804544999977225
03,2,1,12,30.0,35.0,wide,0.9174154000029376
03,2,1,13,28.0,28.0,wide,1.4182237000022724
03,2,1,14,23.0,23.0,wide,0.0833931999986816
03,2,1,15,26.0,21.0,wide,0.5342666000033205
03,2,1,16,20.0,19.0,wide,0.4001943999974173
03,2,1,17,22.0,19.0,wide,1.518127600000298
03,2,1,18,18.0,16.0,wide,0.0500740999996196
03,2,1,19,12.0,13.0,wide,0.4838554000016302
03,2,1,20,12.0,10.0,wide,1.434624399997119
03,2,1,21,37.0,38.0,wide,1.0166098999980022
03,2,1,22,36.0,35.0,wide,0.7340311000007205
03,2,1,23,18.0,22.0,wide,1.601568699999916
03,2,1,24,26.0,24.0,wide,1.4510611000005156
03,2,1,25,20.0,17.0,wide,1.2515634999981555
03,2,1,26,25.0,22.0,wide,1.1981465999997454
03,2,1,27,38.0,26.0,wide,1.6351892999991833
03,2,1,28,34.0,31.0,wide,1.7682808999998088
03,2,1,29,14.0,12.0,wide,1.0144092999980785
03,2,1,30,38.0,22.0,wide,0.5972828999983903
03,2,2,1,26.0,29.0,wide,0.8674774999999499
03,2,2,2,24.0,34.0,wide,1.5848532999989402
03,2,2,3,24.0,19.0,wide,1.0009341999975732
03,2,2,4,29.0,25.0,wide,1.284496800002671
03,2,2,5,14.0,14.0,wide,0.9172787999996216
03,2,2,6,28.0,24.0,wide,1.4343942999985302
03,2,2,7,14.0,10.0,wide,0.600724200001423
03,2,2,8,34.0,33.0,wide,1.501630999999179
03,2,2,9,24.0,19.0,wide,1.2848279000027103
03,2,2,10,10.0,10.0,wide,0.9173727999987022
03,2,2,11,33.0,32.0,wide,0.2168939000002865
03,2,2,12,36.0,35.0,wide,0.0337414999994507
03,2,2,13,33.0,36.0,wide,0.9676462000024912
03,2,2,14,39.0,35.0,wide,1.4679348999998183
03,2,2,15,13.0,10.0,wide,1.2013386999969953
03,2,2,16,20.0,19.0,wide,1.818517299998348
03,2,2,17,23.0,25.0,wide,0.8342585999998846
03,2,2,18,27.0,29.0,wide,1.651765599999635
03,2,2,19,39.0,33.0,wide,1.7349351000011666
03,2,2,20,38.0,40.0,wide,1.5681137000028684
03,2,2,21,39.0,19.0,wide,1.7015262999993863
03,2,2,22,15.0,24.0,wide,0.3003935999986424
03,2,2,23,16.0,14.0,wide,0.8677483999999822
03,2,2,24,22.0,25.0,wide,1.117748199998459
03,2,2,25,36.0,30.0,wide,0.8007701999995334
03,2,2,26,18.0,14.0,wide,0.5841545999974187
03,2,2,27,36.0,34.0,wide,1.4179988000032608
03,2,2,28,25.0,26.0,wide,1.0474450000001525
03,2,2,29,38.0,34.0,wide,1.400495600002614
03,2,2,30,12.0,10.0,wide,0.4995859999980894
03,2,3,1,34.0,35.0,wide,0.8142529000033392
03,2,3,2,21.0,16.0,wide,0.2804044000004069
03,2,3,3,34.0,29.0,wide,0.1471435999992536
03,2,3,4,32.0,31.0,wide,1.3144006000002264
03,2,3,5,13.0,10.0,wide,1.4183554999981425
03,2,3,6,35.0,27.0,wide,1.1317280999974173
03,2,3,7,20.0,27.0,wide,1.6015974000001734
03,2,3,8,28.0,20.0,wide,2.002218899997388
03,2,3,9,30.0,16.0,wide,0.5838369999983115
03,2,3,10,18.0,18.0,wide,0.100054700000328
03,2,3,11,16.0,15.0,wide,1.5350241000014648
03,2,3,12,27.0,29.0,wide,1.6015926000000036
03,2,3,13,13.0,13.0,wide,0.4003233000003092
03,2,3,14,21.0,17.0,wide,0.917699099998572
03,2,3,15,28.0,30.0,wide,0.4670869000001403
03,2,3,16,33.0,27.0,wide,0.1801393999994616
03,2,3,17,29.0,26.0,wide,0.2135212000030151
03,2,3,18,10.0,10.0,wide,1.1004414999988512
03,2,3,19,34.0,31.0,wide,1.7684071000003314
03,2,3,20,20.0,16.0,wide,1.1313592999977118
03,2,3,21,26.0,30.0,wide,1.1681476999983715
03,2,3,22,39.0,,wide,
03,2,3,23,25.0,24.0,wide,1.1513312999995833
03,2,3,24,11.0,11.0,wide,0.333804500001861
03,2,3,25,10.0,10.0,wide,0.1330039999993459
03,2,3,26,33.0,28.0,wide,1.3346019999989949
03,2,3,27,22.0,18.0,wide,2.068339900000865
03,2,3,28,19.0,16.0,wide,1.885327399999369
03,2,3,29,11.0,13.0,wide,1.0675658000000112
03,2,3,30,31.0,28.0,wide,0.3837663000012981
03,2,4,1,16.0,,wide,
03,2,4,2,34.0,29.0,wide,0.8843379999998433
03,2,4,3,21.0,16.0,wide,0.0466387999986182
03,2,4,4,24.0,19.0,wide,0.0300630000019737
03,2,4,5,20.0,17.0,wide,2.052283699998952
03,2,4,6,36.0,32.0,wide,0.781255499998224
03,2,4,7,40.0,32.0,wide,1.2846207000002323
03,2,4,8,33.0,31.0,wide,0.8004239000001689
03,2,4,9,16.0,21.0,wide,2.1183999000022595
03,2,4,10,32.0,28.0,wide,0.2634675000008428
03,2,4,11,21.0,,wide,
03,2,4,12,38.0,34.0,wide,1.434006200001022
03,2,4,13,33.0,21.0,wide,1.4184717999996792
03,2,4,14,39.0,23.0,wide,1.1480864000004658
03,2,4,15,19.0,27.0,wide,1.000379500001145
03,2,4,16,38.0,27.0,wide,0.9307876000020768
03,2,4,17,19.0,,wide,
03,2,4,18,30.0,28.0,wide,0.1665644999993674
03,2,4,19,17.0,14.0,wide,1.951942299998336
03,2,4,20,19.0,21.0,wide,1.144142400000419
03,2,4,21,17.0,22.0,wide,0.5004576999999699
03,2,4,22,15.0,,wide,
03,2,4,23,17.0,23.0,wide,1.0007667999998375
03,2,4,24,27.0,18.0,wide,0.3170408999976644
03,2,4,25,27.0,,wide,
03,2,4,26,39.0,29.0,wide,1.3180484000004071
03,2,4,27,15.0,15.0,wide,1.1676364000013564
03,2,4,28,26.0,20.0,wide,0.6674929000000702
03,2,4,29,36.0,24.0,wide,1.5517216000007463
03,2,4,30,24.0,20.0,wide,0.1969425999996019
03,2,5,1,12.0,13.0,narrow,1.3015359000019089
03,2,5,2,16.0,17.0,narrow,1.2514936000006855
03,2,5,3,10.0,13.0,narrow,1.0848523999993631
03,2,5,4,17.0,20.0,narrow,1.1005213999997068
03,2,5,5,11.0,12.0,narrow,0.2669306000025244
03,2,5,6,11.0,16.0,narrow,0.8001873000030173
03,2,5,7,12.0,15.0,narrow,1.2849153000024671
03,2,5,8,11.0,12.0,narrow,1.4016026999997848
03,2,5,9,10.0,14.0,narrow,1.601740800000698
03,2,5,10,18.0,22.0,narrow,1.201643399999739
03,2,5,11,13.0,13.0,narrow,1.2513314000025275
03,2,5,12,10.0,10.0,narrow,0.0468289999989792
03,2,5,13,20.0,24.0,narrow,0.5932532000006177
03,2,5,14,11.0,14.0,narrow,0.0468349999973725
03,2,5,15,16.0,19.0,narrow,1.4515386999992188
03,2,5,16,22.0,21.0,narrow,1.0309733999965829
03,2,5,17,12.0,15.0,narrow,1.0642963999998756
03,2,5,18,22.0,25.0,narrow,0.1299658000025374
03,2,5,19,24.0,23.0,narrow,0.9845398999968892
03,2,5,20,20.0,19.0,narrow,2.0522220999991987
03,2,5,21,14.0,13.0,narrow,1.2680488000005423
03,2,5,22,22.0,25.0,narrow,0.951308899999276
03,2,5,23,10.0,11.0,narrow,1.301477100001648
03,2,5,24,21.0,18.0,narrow,1.0846323999976448
03,2,5,25,13.0,17.0,narrow,0.5805185999997775
03,2,5,26,24.0,22.0,narrow,0.597067300001072
03,2,5,27,21.0,20.0,narrow,0.9471376000001328
03,2,5,28,16.0,23.0,narrow,0.0167744000027596
03,2,5,29,20.0,14.0,narrow,0.9675921000016388
03,2,5,30,21.0,20.0,narrow,1.2348230999996304
03,2,6,1,21.0,25.0,narrow,0.9008385000015552
03,2,6,2,16.0,19.0,narrow,1.4683007999992697
03,2,6,3,18.0,22.0,narrow,1.4515867000009166
03,2,6,4,20.0,18.0,narrow,1.8518210000002
03,2,6,5,14.0,10.0,narrow,0.5268916999993962
03,2,6,6,25.0,22.0,narrow,1.0016630000027362
03,2,6,7,22.0,21.0,narrow,0.2668854000003193
03,2,6,8,18.0,15.0,narrow,0.0833156000007875
03,2,6,9,14.0,11.0,narrow,1.6477608999994118
03,2,6,10,14.0,17.0,narrow,1.0176535999999032
03,2,6,11,23.0,25.0,narrow,1.3346146999974735
03,2,6,12,15.0,13.0,narrow,0.2670895999981439
03,2,6,13,14.0,,narrow,
03,2,6,14,15.0,18.0,narrow,0.4337720000003173
03,2,6,15,10.0,12.0,narrow,1.084246800000983
03,2,6,16,21.0,23.0,narrow,1.2847325000002456
03,2,6,17,10.0,17.0,narrow,0.9512008000019704
03,2,6,18,12.0,15.0,narrow,0.9670460999986972
03,2,6,19,25.0,24.0,narrow,2.066793799996958
03,2,6,20,17.0,20.0,narrow,1.0179945000018051
03,2,6,21,23.0,20.0,narrow,0.1002522000017052
03,2,6,22,24.0,23.0,narrow,1.3011585999993258
03,2,6,23,21.0,25.0,narrow,0.9177306999990832
03,2,6,24,21.0,21.0,narrow,0.9972032000005128
03,2,6,25,24.0,25.0,narrow,1.3513226000031864
03,2,6,26,25.0,23.0,narrow,0.5837800999979663
03,2,6,27,22.0,13.0,narrow,1.1345786999991103
03,2,6,28,21.0,20.0,narrow,1.885247199999867
03,2,6,29,23.0,23.0,narrow,0.7840716999999131
03,2,6,30,17.0,14.0,narrow,1.2180273000012676
03,2,7,1,24.0,21.0,narrow,1.0012845000019297
03,2,7,2,13.0,13.0,narrow,1.3504741000033391
03,2,7,3,23.0,20.0,narrow,0.7006696999997075
03,2,7,4,20.0,21.0,narrow,1.117888799999491
03,2,7,5,11.0,10.0,narrow,1.1513568999980637
03,2,7,6,18.0,19.0,narrow,0.8008141000027535
03,2,7,7,23.0,17.0,narrow,1.317912200000137
03,2,7,8,22.0,24.0,narrow,0.5670867999979237
03,2,7,9,20.0,21.0,narrow,1.3015492999984415
03,2,7,10,16.0,12.0,narrow,0.4764346000010846
03,2,7,11,18.0,17.0,narrow,1.7348141000002215
03,2,7,12,17.0,18.0,narrow,1.4017512999998871
03,2,7,13,11.0,11.0,narrow,1.0181040999996185
03,2,7,14,12.0,12.0,narrow,1.2014175999975123
03,2,7,15,21.0,24.0,narrow,0.9677345999989484
03,2,7,16,20.0,20.0,narrow,1.2175453000018024
03,2,7,17,20.0,20.0,narrow,1.0341685999992478
03,2,7,18,25.0,20.0,narrow,1.0509550999995554
03,2,7,19,13.0,13.0,narrow,0.2146466000012878
03,2,7,20,24.0,25.0,narrow,1.4514334999985294
03,2,7,21,23.0,20.0,narrow,1.3850949999978184
03,2,7,22,14.0,14.0,narrow,1.1680699000025925
03,2,7,23,14.0,13.0,narrow,1.718644899996434
03,2,7,24,14.0,14.0,narrow,1.4351975999998103
03,2,7,25,13.0,13.0,narrow,0.800425899997208
03,2,7,26,23.0,22.0,narrow,1.1012819999996282
03,2,7,27,10.0,10.0,narrow,1.5009095999994315
03,2,7,28,23.0,22.0,narrow,0.7173836000001756
03,2,7,29,19.0,,narrow,
03,2,7,30,18.0,23.0,narrow,0.3170069000007061
03,2,8,1,13.0,20.0,narrow,1.6684616999991704
03,2,8,2,10.0,10.0,narrow,0.6338784999970812
03,2,8,3,19.0,25.0,narrow,0.650646299996879
03,2,8,4,21.0,19.0,narrow,0.0170004999999946
03,2,8,5,22.0,22.0,narrow,1.1845382999999856
03,2,8,6,25.0,25.0,narrow,0.9677205000007234
03,2,8,7,18.0,21.0,narrow,1.4015221999979983
03,2,8,8,12.0,10.0,narrow,0.4170181000008597
03,2,8,9,20.0,20.0,narrow,1.084471999998641
03,2,8,10,19.0,14.0,narrow,1.701307799998176
03,2,8,11,20.0,21.0,narrow,1.017473700001574
03,2,8,12,11.0,10.0,narrow,1.2177847999992082
03,2,8,13,18.0,16.0,narrow,1.3347405999993498
03,2,8,14,17.0,19.0,narrow,0.7340087000011408
03,2,8,15,21.0,25.0,narrow,0.9177574999994248
03,2,8,16,18.0,20.0,narrow,0.8005066999976407
03,2,8,17,24.0,25.0,narrow,0.7677737999983947
03,2,8,18,21.0,22.0,narrow,0.4004304000009142
03,2,8,19,24.0,25.0,narrow,0.7176188000012189
03,2,8,20,11.0,10.0,narrow,0.4503406000003451
03,2,8,21,17.0,17.0,narrow,1.4013737999994191
03,2,8,22,24.0,22.0,narrow,0.6504461000004085
03,2,8,23,15.0,16.0,narrow,1.001272199999221
03,2,8,24,12.0,11.0,narrow,2.1854858999977296
03,2,8,25,23.0,21.0,narrow,1.1008945999965365
03,2,8,26,10.0,14.0,narrow,0.533945399998629
03,2,8,27,13.0,15.0,narrow,0.0667837999972107
03,2,8,28,15.0,15.0,narrow,1.2179047999998147
03,2,8,29,19.0,18.0,narrow,0.7007658000002266
03,2,8,30,12.0,11.0,narrow,0.4838806000007025
04,1,1,1,40.0,38.0,wide,0.5505511999999726
04,1,1,2,25.0,,wide,
04,1,1,3,13.0,10.0,wide,0.4671252000007371
04,1,1,4,27.0,37.0,wide,1.1842432000012195
04,1,1,5,13.0,10.0,wide,0.914199099999678
04,1,1,6,35.0,40.0,wide,0.9845364000011614
04,1,1,7,27.0,35.0,wide,0.9310064000001148
04,1,1,8,39.0,39.0,wide,1.2177697999995871
04,1,1,9,34.0,29.0,wide,0.5840809000001173
04,1,1,10,24.0,26.0,wide,1.1669497999992018
04,1,1,11,34.0,33.0,wide,1.7684408000004623
04,1,1,12,28.0,25.0,wide,2.0351879999998346
04,1,1,13,18.0,12.0,wide,1.4512620000004972
04,1,1,14,25.0,18.0,wide,1.635127999999895
04,1,1,15,32.0,,wide,
04,1,1,16,22.0,29.0,wide,1.668257100000119
04,1,1,17,37.0,33.0,wide,0.7841248000004271
04,1,1,18,18.0,17.0,wide,1.4015882999992757
04,1,1,19,37.0,30.0,wide,1.184272399999827
04,1,1,20,20.0,20.0,wide,1.6350289000001794
04,1,1,21,13.0,14.0,wide,1.9856048000001465
04,1,1,22,23.0,22.0,wide,1.6018291000000318
04,1,1,23,19.0,25.0,wide,2.118850199998633
04,1,1,24,23.0,26.0,wide,1.417886899998848
04,1,1,25,40.0,35.0,wide,0.3336879999988014
04,1,1,26,27.0,29.0,wide,1.7445188000001508
04,1,1,27,24.0,23.0,wide,0.1803397000003315
04,1,1,28,31.0,30.0,wide,1.785192699999243
04,1,1,29,32.0,30.0,wide,1.031125200001043
04,1,1,30,30.0,27.0,wide,0.0501203000003442
04,1,2,1,35.0,35.0,wide,1.014498000000458
04,1,2,2,40.0,37.0,wide,2.068664399999762
04,1,2,3,29.0,27.0,wide,1.2009548000005452
04,1,2,4,27.0,25.0,wide,1.2847820000006325
04,1,2,5,13.0,10.0,wide,1.9689651999997295
04,1,2,6,14.0,10.0,wide,0.9512239000014232
04,1,2,7,16.0,15.0,wide,1.785190099999454
04,1,2,8,14.0,14.0,wide,2.0016360000008717
04,1,2,9,21.0,23.0,wide,1.3179087999997137
04,1,2,10,11.0,10.0,wide,1.1511645000009594
04,1,2,11,36.0,36.0,wide,2.169880800000101
04,1,2,12,13.0,15.0,wide,0.6332230999996682
04,1,2,13,26.0,30.0,wide,1.0677788000011788
04,1,2,14,25.0,27.0,wide,0.9841046999990796
04,1,2,15,17.0,22.0,wide,1.4338006999987556
04,1,2,16,28.0,33.0,wide,0.8139116000002105
04,1,2,17,35.0,38.0,wide,2.0449519000012515
04,1,2,18,39.0,36.0,wide,1.6611250000005384
04,1,2,19,17.0,18.0,wide,1.381209299999682
04,1,2,20,25.0,28.0,wide,1.935214699999051
04,1,2,21,13.0,,wide,
04,1,2,22,28.0,25.0,wide,0.7173322999988159
04,1,2,23,12.0,15.0,wide,1.5517424999998184
04,1,2,24,16.0,18.0,wide,1.6683952000003046
04,1,2,25,11.0,13.0,wide,1.6349231000003783
04,1,2,26,23.0,24.0,wide,0.7508043999987422
04,1,2,27,31.0,36.0,wide,0.583743900000627
04,1,2,28,35.0,34.0,wide,0.5671256999994512
04,1,2,29,31.0,29.0,wide,1.4010641000004398
04,1,2,30,40.0,36.0,wide,0.3505585999992036
04,1,3,1,19.0,27.0,wide,0.1167616999991878
04,1,3,2,37.0,36.0,wide,0.0500924999996641
04,1,3,3,35.0,35.0,wide,1.635305800000424
04,1,3,4,23.0,30.0,wide,0.5669565999996848
04,1,3,5,12.0,21.0,wide,1.6851134000007733
04,1,3,6,16.0,17.0,wide,1.933487199999945
04,1,3,7,15.0,27.0,wide,1.6683574999988195
04,1,3,8,22.0,34.0,wide,1.9518705000009504
04,1,3,9,34.0,33.0,wide,1.3011339000004227
04,1,3,10,38.0,40.0,wide,1.7182952999992267
04,1,3,11,10.0,14.0,wide,1.4512866000004578
04,1,3,12,29.0,30.0,wide,0.4337309000002278
04,1,3,13,23.0,27.0,wide,0.2339269999993121
04,1,3,14,39.0,37.0,wide,0.7671931000004406
04,1,3,15,21.0,24.0,wide,0.397460799998953
04,1,3,16,39.0,35.0,wide,0.1000555000009626
04,1,3,17,10.0,10.0,wide,1.4347192000004725
04,1,3,18,17.0,22.0,wide,0.4163181999992957
04,1,3,19,26.0,33.0,wide,0.8842421999997896
04,1,3,20,27.0,29.0,wide,0.2000681000008626
04,1,3,21,30.0,30.0,wide,1.4847878000000492
04,1,3,22,21.0,27.0,wide,1.5681733999990684
04,1,3,23,16.0,,wide,
04,1,3,24,24.0,29.0,wide,1.1845735999995668
04,1,3,25,40.0,40.0,wide,1.0179911000013817
04,1,3,26,36.0,36.0,wide,1.7184467999995832
04,1,3,27,15.0,23.0,wide,0.9006788000006054
04,1,3,28,32.0,32.0,wide,1.902094200000647
04,1,3,29,15.0,21.0,wide,1.0844518000012613
04,1,3,30,13.0,25.0,wide,0.1967929000002186
04,1,4,1,34.0,40.0,wide,0.4832177999996929
04,1,4,2,29.0,34.0,wide,0.3336529000007431
04,1,4,3,28.0,32.0,wide,1.7352680999993026
04,1,4,4,39.0,36.0,wide,1.568071300000156
04,1,4,5,11.0,21.0,wide,0.2002525999996578
04,1,4,6,35.0,31.0,wide,1.234574000000066
04,1,4,7,30.0,32.0,wide,0.9846606999999494
04,1,4,8,10.0,10.0,wide,0.5840300999989267
04,1,4,9,27.0,35.0,wide,0.4507826999997633
04,1,4,10,19.0,18.0,wide,1.784925199999634
04,1,4,11,28.0,33.0,wide,1.2183411000005435
04,1,4,12,38.0,36.0,wide,1.5515079999986483
04,1,4,13,17.0,22.0,wide,0.9308495000004768
04,1,4,14,27.0,27.0,wide,1.902950100000453
04,1,4,15,25.0,30.0,wide,1.2179943999999523
04,1,4,16,12.0,13.0,wide,1.448126699999193
04,1,4,17,20.0,24.0,wide,1.284893899999588
04,1,4,18,18.0,28.0,wide,1.3682619999999588
04,1,4,19,26.0,31.0,wide,1.6849497000002884
04,1,4,20,27.0,35.0,wide,0.2670414999993227
04,1,4,21,27.0,29.0,wide,2.0686343999987
04,1,4,22,36.0,36.0,wide,0.2502072000006592
04,1,4,23,23.0,26.0,wide,1.5179876000001968
04,1,4,24,30.0,31.0,wide,0.1667196999987936
04,1,4,25,21.0,27.0,wide,0.8006611999990128
04,1,4,26,11.0,16.0,wide,1.0346798000009585
04,1,4,27,40.0,40.0,wide,0.3171004999985598
04,1,4,28,11.0,15.0,wide,0.6171938000006776
04,1,4,29,36.0,38.0,wide,0.8165855999995983
04,1,4,30,40.0,40.0,wide,0.5001052000006894
04,1,5,1,11.0,15.0,narrow,1.201330699999744
04,1,5,2,19.0,19.0,narrow,0.1667147999996814
04,1,5,3,19.0,22.0,narrow,0.6674791000004916
04,1,5,4,10.0,17.0,narrow,1.2512290000013309
04,1,5,5,23.0,25.0,narrow,0.0834555000001273
04,1,5,6,11.0,13.0,narrow,1.4851647000014054
04,1,5,7,12.0,17.0,narrow,1.585123000000749
04,1,5,8,10.0,13.0,narrow,1.7685532999985298
04,1,5,9,11.0,10.0,narrow,0.9177820999993856
04,1,5,10,25.0,25.0,narrow,0.3503817000000708
04,1,5,11,11.0,14.0,narrow,1.88534350000009
04,1,5,12,24.0,25.0,narrow,0.7339572000000771
04,1,5,13,20.0,23.0,narrow,1.5515231999997925
04,1,5,14,12.0,16.0,narrow,0.1668079999999463
04,1,5,15,11.0,14.0,narrow,0.3170800999996572
04,1,5,16,19.0,19.0,narrow,1.4851724999989528
04,1,5,17,24.0,20.0,narrow,0.9832400999985113
04,1,5,18,14.0,18.0,narrow,0.8673580000013317
04,1,5,19,22.0,23.0,narrow,1.2178862000000663
04,1,5,20,11.0,12.0,narrow,0.8174257999999099
04,1,5,21,13.0,15.0,narrow,0.8843848000014987
04,1,5,22,24.0,25.0,narrow,0.8511465999999928
04,1,5,23,24.0,25.0,narrow,0.4838789000004908
04,1,5,24,25.0,20.0,narrow,1.3680875999998534
04,1,5,25,16.0,19.0,narrow,0.2503541999994922
04,1,5,26,23.0,22.0,narrow,1.9687950999996249
04,1,5,27,12.0,14.0,narrow,1.4683245999985957
04,1,5,28,15.0,16.0,narrow,1.535367899999983
04,1,5,29,22.0,22.0,narrow,1.050977700000658
04,1,5,30,16.0,23.0,narrow,0.3300338000008196
04,1,6,1,20.0,22.0,narrow,1.6517124000001786
04,1,6,2,17.0,18.0,narrow,1.5014528000010614
04,1,6,3,24.0,25.0,narrow,0.7509981000002881
04,1,6,4,19.0,21.0,narrow,1.4681144000005588
04,1,6,5,21.0,24.0,narrow,1.1003325000001496
04,1,6,6,11.0,13.0,narrow,0.6840795999996772
04,1,6,7,10.0,11.0,narrow,1.2682975999996415
04,1,6,8,23.0,25.0,narrow,0.7175725999986753
04,1,6,9,22.0,25.0,narrow,1.85175049999998
04,1,6,10,19.0,20.0,narrow,1.2343211999996129
04,1,6,11,15.0,18.0,narrow,0.7341269999997166
04,1,6,12,14.0,15.0,narrow,1.0940157999993971
04,1,6,13,13.0,22.0,narrow,1.6515464000003703
04,1,6,14,21.0,23.0,narrow,1.4480208000004495
04,1,6,15,22.0,20.0,narrow,0.4136160999987623
04,1,6,16,11.0,18.0,narrow,0.7970514999997249
04,1,6,17,11.0,15.0,narrow,1.1678210999998555
04,1,6,18,21.0,22.0,narrow,0.5471726000014314
04,1,6,19,20.0,23.0,narrow,1.501777299999958
04,1,6,20,14.0,23.0,narrow,1.1513398999995843
04,1,6,21,21.0,20.0,narrow,0.7006916999998793
04,1,6,22,20.0,24.0,narrow,1.2345289000004414
04,1,6,23,15.0,18.0,narrow,1.7349106000001484
04,1,6,24,15.0,15.0,narrow,0.5505319999992935
04,1,6,25,19.0,25.0,narrow,0.0635184000002482
04,1,6,26,18.0,19.0,narrow,0.8475874000014301
04,1,6,27,18.0,22.0,narrow,0.0801258999999845
04,1,6,28,22.0,18.0,narrow,2.1185303999991447
04,1,6,29,21.0,19.0,narrow,0.4503080999984377
04,1,6,30,16.0,15.0,narrow,0.6671870000009221
04,1,7,1,18.0,16.0,narrow,0.6005119999990711
04,1,7,2,20.0,22.0,narrow,0.0337514999991981
04,1,7,3,15.0,18.0,narrow,0.96802740000021
04,1,7,4,19.0,20.0,narrow,0.6506793000007747
04,1,7,5,11.0,14.0,narrow,0.8005825000000186
04,1,7,6,24.0,23.0,narrow,1.184443199999805
04,1,7,7,20.0,19.0,narrow,1.8017049000009135
04,1,7,8,17.0,19.0,narrow,1.3846008000000438
04,1,7,9,14.0,16.0,narrow,0.8175816000002669
04,1,7,10,12.0,16.0,narrow,0.1473127999997814
04,1,7,11,22.0,20.0,narrow,0.8640778999997565
04,1,7,12,18.0,22.0,narrow,0.4170923999990918
04,1,7,13,13.0,18.0,narrow,1.88505460000124
04,1,7,14,11.0,12.0,narrow,0.9007273000006536
04,1,7,15,17.0,23.0,narrow,1.484938499999771
04,1,7,16,12.0,15.0,narrow,1.9854933000005983
04,1,7,17,13.0,13.0,narrow,1.4184819999991305
04,1,7,18,14.0,18.0,narrow,0.0999343999992561
04,1,7,19,23.0,25.0,narrow,0.934565699999439
04,1,7,20,11.0,12.0,narrow,1.8017890999999508
04,1,7,21,20.0,,narrow,
04,1,7,22,13.0,13.0,narrow,1.5851542000000336
04,1,7,23,20.0,23.0,narrow,1.3847347999999329
04,1,7,24,23.0,21.0,narrow,0.5172067000003153
04,1,7,25,22.0,20.0,narrow,1.000759600001402
04,1,7,26,14.0,16.0,narrow,1.1675244000016392
04,1,7,27,20.0,22.0,narrow,0.950718300000517
04,1,7,28,22.0,22.0,narrow,0.9511841999992612
04,1,7,29,20.0,23.0,narrow,1.484653699999399
04,1,7,30,18.0,18.0,narrow,0.617420000000493
04,1,8,1,15.0,19.0,narrow,0.099875099998826
04,1,8,2,19.0,22.0,narrow,1.301104199999827
04,1,8,3,18.0,17.0,narrow,1.1179607000012766
04,1,8,4,16.0,16.0,narrow,0.0834695999983523
04,1,8,5,10.0,12.0,narrow,1.101084300000366
04,1,8,6,15.0,21.0,narrow,1.0342483000003997
04,1,8,7,20.0,22.0,narrow,1.5515856000001804
04,1,8,8,19.0,15.0,narrow,1.9351423000007344
04,1,8,9,21.0,20.0,narrow,1.434692200000427
04,1,8,10,21.0,20.0,narrow,0.1333596000004036
04,1,8,11,24.0,25.0,narrow,1.485068300000421
04,1,8,12,10.0,18.0,narrow,0.8842771999989054
04,1,8,13,25.0,,narrow,
04,1,8,14,17.0,19.0,narrow,1.4681175000005169
04,1,8,15,15.0,16.0,narrow,0.3635854999993171
04,1,8,16,17.0,20.0,narrow,0.446963099999266
04,1,8,17,24.0,22.0,narrow,2.2020181999996566
04,1,8,18,15.0,16.0,narrow,1.134500800000751
04,1,8,19,14.0,18.0,narrow,0.9842220999998972
04,1,8,20,12.0,17.0,narrow,1.7348428000004787
04,1,8,21,24.0,20.0,narrow,0.0501358000001346
04,1,8,22,17.0,23.0,narrow,1.5681976000014402
04,1,8,23,23.0,,narrow,
04,1,8,24,14.0,20.0,narrow,0.5170754000009765
04,1,8,25,10.0,10.0,narrow,1.5683877000010398
04,1,8,26,23.0,23.0,narrow,1.1345665000008012
04,1,8,27,16.0,17.0,narrow,0.4605370999997831
04,1,8,28,12.0,12.0,narrow,1.4179762000003393
04,1,8,29,17.0,15.0,narrow,1.785347200000615
04,1,8,30,23.0,18.0,narrow,0.767314400000032
04,2,1,1,18.0,20.0,narrow,0.4838376000006974
04,2,1,2,16.0,17.0,narrow,0.6340171999981976
04,2,1,3,12.0,13.0,narrow,0.3670623999969393
04,2,1,4,13.0,12.0,narrow,0.350354199999856
04,2,1,5,17.0,18.0,narrow,0.2637747000007948
04,2,1,6,12.0,13.0,narrow,1.2004235999993398
04,2,1,7,12.0,11.0,narrow,2.0687647000013385
04,2,1,8,15.0,15.0,narrow,0.8008657000027597
04,2,1,9,22.0,20.0,narrow,0.9846919999981764
04,2,1,10,13.0,12.0,narrow,1.09758100000181
04,2,1,11,20.0,18.0,narrow,0.6840231000023778
04,2,1,12,11.0,10.0,narrow,0.8176397000024735
04,2,1,13,20.0,22.0,narrow,0.283748599998944
04,2,1,14,12.0,10.0,narrow,0.4169462999998359
04,2,1,15,10.0,10.0,narrow,0.7675035000029311
04,2,1,16,15.0,18.0,narrow,1.3016725999987102
04,2,1,17,14.0,15.0,narrow,0.2169648000017332
04,2,1,18,20.0,22.0,narrow,0.9008542000010492
04,2,1,19,23.0,21.0,narrow,0.8173882999981288
04,2,1,20,13.0,11.0,narrow,0.0666335999994771
04,2,1,21,14.0,15.0,narrow,0.0167900999986159
04,2,1,22,25.0,22.0,narrow,1.2843695000010484
04,2,1,23,15.0,15.0,narrow,0.1834568999984185
04,2,1,24,14.0,17.0,narrow,1.401489899999433
04,2,1,25,14.0,16.0,narrow,1.367983699998149
04,2,1,26,22.0,21.0,narrow,0.1798111999996763
04,2,1,27,24.0,22.0,narrow,1.618192199999612
04,2,1,28,16.0,18.0,narrow,0.9975654000008944
04,2,1,29,15.0,16.0,narrow,0.2671647000024677
04,2,1,30,13.0,15.0,narrow,0.2335196999993058
04,2,2,1,23.0,25.0,narrow,0.8508427000015217
04,2,2,2,16.0,20.0,narrow,0.2302630999984103
04,2,2,3,19.0,,narrow,
04,2,2,4,24.0,20.0,narrow,0.7845637999998871
04,2,2,5,14.0,15.0,narrow,0.8344920000017737
04,2,2,6,16.0,14.0,narrow,0.4335820000014792
04,2,2,7,23.0,22.0,narrow,0.5172677000009571
04,2,2,8,20.0,17.0,narrow,1.2181342999974731
04,2,2,9,15.0,16.0,narrow,1.3347409999987576
04,2,2,10,11.0,14.0,narrow,2.1688021999980265
04,2,2,11,18.0,17.0,narrow,1.8187717000000705
04,2,2,12,10.0,10.0,narrow,0.3776613000009092
04,2,2,13,24.0,23.0,narrow,0.5838828000014473
04,2,2,14,10.0,10.0,narrow,0.8176108000006934
04,2,2,15,23.0,23.0,narrow,0.1000693999994837
04,2,2,16,12.0,13.0,narrow,0.0500790999976743
04,2,2,17,10.0,10.0,narrow,0.1999198000012256
04,2,2,18,13.0,16.0,narrow,0.7305637000026763
04,2,2,19,25.0,22.0,narrow,1.8354878999998616
04,2,2,20,20.0,18.0,narrow,1.284350300000369
04,2,2,21,23.0,22.0,narrow,1.4313277000001108
04,2,2,22,23.0,19.0,narrow,0.2966493999992963
04,2,2,23,13.0,12.0,narrow,1.1142180999995617
04,2,2,24,19.0,18.0,narrow,0.5339297999998962
04,2,2,25,10.0,10.0,narrow,0.7009060999989742
04,2,2,26,18.0,17.0,narrow,1.3348293000017293
04,2,2,27,15.0,14.0,narrow,0.3004419999997481
04,2,2,28,25.0,22.0,narrow,1.4177519000004395
04,2,2,29,18.0,20.0,narrow,1.3516516999989108
04,2,2,30,21.0,21.0,narrow,0.8141274000008707
04,2,3,1,25.0,20.0,narrow,0.7307060999992245
04,2,3,2,14.0,15.0,narrow,0.0294907000024977
04,2,3,3,17.0,18.0,narrow,0.800833600002079
04,2,3,4,12.0,13.0,narrow,1.2848497000013597
04,2,3,5,14.0,16.0,narrow,0.8306308999999601
04,2,3,6,20.0,20.0,narrow,0.3993942999986757
04,2,3,7,17.0,17.0,narrow,1.4850497000006726
04,2,3,8,19.0,22.0,narrow,1.4179179000020667
04,2,3,9,24.0,20.0,narrow,0.0834931999997934
04,2,3,10,20.0,18.0,narrow,0.7007120999987819
04,2,3,11,16.0,18.0,narrow,2.102513199999521
04,2,3,12,13.0,15.0,narrow,0.6672916999996232
04,2,3,13,19.0,16.0,narrow,0.6672290999995312
04,2,3,14,19.0,16.0,narrow,1.685192700002517
04,2,3,15,16.0,14.0,narrow,0.116632600002049
04,2,3,16,21.0,18.0,narrow,0.3671885000003385
04,2,3,17,23.0,16.0,narrow,1.231171399998857
04,2,3,18,15.0,20.0,narrow,0.6471423000002687
04,2,3,19,20.0,17.0,narrow,0.2636397999995097
04,2,3,20,11.0,10.0,narrow,0.8011632000016107
04,2,3,21,22.0,18.0,narrow,1.1178089999993972
04,2,3,22,20.0,22.0,narrow,0.9842546999971092
04,2,3,23,16.0,18.0,narrow,1.4182951000002504
04,2,3,24,11.0,16.0,narrow,1.284615100001247
04,2,3,25,14.0,19.0,narrow,0.1133029000011447
04,2,3,26,15.0,16.0,narrow,0.1801292999989527
04,2,3,27,24.0,19.0,narrow,0.8639204999999492
04,2,3,28,13.0,12.0,narrow,0.7303575000005367
04,2,3,29,24.0,18.0,narrow,1.5314484999980778
04,2,3,30,11.0,10.0,narrow,1.1847841999988304
04,2,4,1,14.0,18.0,narrow,0.4004151999979513
04,2,4,2,23.0,22.0,narrow,2.035222499998781
04,2,4,3,16.0,19.0,narrow,1.7852005999993708
04,2,4,4,18.0,18.0,narrow,0.0632477999970433
04,2,4,5,23.0,25.0,narrow,0.8177127999988443
04,2,4,6,11.0,24.0,narrow,1.8482180000028168
04,2,4,7,24.0,23.0,narrow,1.4514618999965023
04,2,4,8,16.0,18.0,narrow,1.1002059999991616
04,2,4,9,13.0,18.0,narrow,1.284690699998464
04,2,4,10,17.0,20.0,narrow,1.1848099999988335
04,2,4,11,17.0,17.0,narrow,0.9141861999996764
04,2,4,12,18.0,18.0,narrow,1.384761300003447
04,2,4,13,21.0,17.0,narrow,1.4515596000019286
04,2,4,14,15.0,14.0,narrow,0.9842939999980445
04,2,4,15,21.0,,narrow,
04,2,4,16,15.0,20.0,narrow,0.4670913000009022
04,2,4,17,24.0,25.0,narrow,0.7008921000015107
04,2,4,18,23.0,24.0,narrow,0.2002695999981369
04,2,4,19,25.0,16.0,narrow,1.6348785999980464
04,2,4,20,21.0,20.0,narrow,0.8675038000001223
04,2,4,21,16.0,18.0,narrow,1.3346774999990885
04,2,4,22,12.0,14.0,narrow,0.6128258999997342
04,2,4,23,19.0,16.0,narrow,0.5337765000003856
04,2,4,24,19.0,15.0,narrow,0.413647099998343
04,2,4,25,12.0,12.0,narrow,0.0468642000014369
04,2,4,26,17.0,15.0,narrow,0.7505978000008326
04,2,4,27,23.0,21.0,narrow,1.7516064000010374
04,2,4,28,12.0,12.0,narrow,1.3848561999984668
04,2,4,29,19.0,17.0,narrow,0.8641887999983737
04,2,4,30,10.0,20.0,narrow,0.7338987999974051
04,2,5,1,16.0,26.0,wide,0.416042799999559
04,2,5,2,17.0,18.0,wide,0.7173665999980585
04,2,5,3,14.0,15.0,wide,0.2168488000024808
04,2,5,4,29.0,25.0,wide,2.0187576999996963
04,2,5,5,14.0,13.0,wide,0.2669797999988077
04,2,5,6,28.0,25.0,wide,1.4845755999995165
04,2,5,7,38.0,,wide,
04,2,5,8,40.0,33.0,wide,0.2503264000006311
04,2,5,9,17.0,16.0,wide,1.7685438000007707
04,2,5,10,35.0,35.0,wide,1.0105030000013355
04,2,5,11,21.0,26.0,wide,1.2681068000019875
04,2,5,12,38.0,34.0,wide,1.5016704999979993
04,2,5,13,15.0,15.0,wide,1.7982436000020243
04,2,5,14,32.0,28.0,wide,1.7352022000013676
04,2,5,15,30.0,,wide,
04,2,5,16,21.0,22.0,wide,0.5165741000018897
04,2,5,17,32.0,28.0,wide,0.4670091000007232
04,2,5,18,15.0,18.0,wide,2.118994800002838
04,2,5,19,34.0,28.0,wide,1.4178737000002002
04,2,5,20,12.0,11.0,wide,0.7842146000002685
04,2,5,21,30.0,26.0,wide,0.2335284000000683
04,2,5,22,35.0,34.0,wide,0.9507823000021745
04,2,5,23,32.0,29.0,wide,0.7340910999992047
04,2,5,24,38.0,29.0,wide,0.4003936000008252
04,2,5,25,40.0,40.0,wide,0.817825800000719
04,2,5,26,35.0,39.0,wide,1.8693358999989869
04,2,5,27,26.0,28.0,wide,0.8006376000012096
04,2,5,28,28.0,28.0,wide,1.351295200001914
04,2,5,29,39.0,34.0,wide,1.234562999998161
04,2,5,30,36.0,32.0,wide,0.6672211999975843
04,2,6,1,14.0,19.0,wide,1.4677851000014923
04,2,6,2,24.0,20.0,wide,0.797382299999299
04,2,6,3,10.0,10.0,wide,0.9177823999998508
04,2,6,4,37.0,37.0,wide,0.283862100000988
04,2,6,5,11.0,12.0,wide,1.6192778000004182
04,2,6,6,26.0,28.0,wide,0.0999981999993906
04,2,6,7,36.0,40.0,wide,0.1169493000015791
04,2,6,8,12.0,13.0,wide,1.6014809999978752
04,2,6,9,37.0,31.0,wide,1.632802799998899
04,2,6,10,20.0,24.0,wide,1.601638300002378
04,2,6,11,16.0,21.0,wide,1.150963900003262
04,2,6,12,33.0,28.0,wide,1.785158800001227
04,2,6,13,37.0,36.0,wide,1.1809145000006538
04,2,6,14,27.0,28.0,wide,0.6139591999999539
04,2,6,15,37.0,31.0,wide,0.1503058000016608
04,2,6,16,13.0,14.0,wide,0.9140184000025328
04,2,6,17,20.0,17.0,wide,0.6337018000012904
04,2,6,18,37.0,28.0,wide,0.8174887999994098
04,2,6,19,34.0,28.0,wide,0.8498357999997097
04,2,6,20,18.0,24.0,wide,0.2635293999992427
04,2,6,21,18.0,18.0,wide,2.1685720999994373
04,2,6,22,20.0,22.0,wide,1.1012693000011495
04,2,6,23,18.0,24.0,wide,1.918170699998882
04,2,6,24,33.0,31.0,wide,0.9973728000004484
04,2,6,25,27.0,28.0,wide,0.350190900000598
04,2,6,26,25.0,25.0,wide,1.8686429000008504
04,2,6,27,38.0,30.0,wide,1.8018531999987315
04,2,6,28,25.0,26.0,wide,0.2002261000016005
04,2,6,29,19.0,18.0,wide,0.8176690000000235
04,2,6,30,25.0,23.0,wide,1.234593599998334
04,2,7,1,26.0,28.0,wide,0.7008258000023488
04,2,7,2,36.0,30.0,wide,0.4174049000030209
04,2,7,3,34.0,33.0,wide,1.1176962999998068
04,2,7,4,25.0,26.0,wide,1.6019694999995409
04,2,7,5,22.0,28.0,wide,0.2836740999991889
04,2,7,6,38.0,40.0,wide,1.2346723999980895
04,2,7,7,38.0,40.0,wide,0.7176104999998643
04,2,7,8,31.0,32.0,wide,0.2669440999998187
04,2,7,9,39.0,29.0,wide,1.5517774999971152
04,2,7,10,30.0,28.0,wide,1.0843907999988005
04,2,7,11,18.0,19.0,wide,1.33476840000003
04,2,7,12,25.0,24.0,wide,1.2345816000015477
04,2,7,13,34.0,32.0,wide,0.2003465000016149
04,2,7,14,39.0,36.0,wide,0.9510738999997556
04,2,7,15,34.0,34.0,wide,1.0011035999996238
04,2,7,16,11.0,10.0,wide,1.1011440999973274
04,2,7,17,32.0,30.0,wide,0.6006736000017554
04,2,7,18,18.0,22.0,wide,1.3851169000008667
04,2,7,19,22.0,25.0,wide,1.701600600001257
04,2,7,20,12.0,14.0,wide,0.7636375000001863
04,2,7,21,11.0,10.0,wide,0.8014104000030784
04,2,7,22,12.0,15.0,wide,0.980470399998012
04,2,7,23,29.0,23.0,wide,0.730503899998439
04,2,7,24,23.0,28.0,wide,1.2636454999992566
04,2,7,25,11.0,10.0,wide,1.217685799998435
04,2,7,26,17.0,22.0,wide,1.6018474999982573
04,2,7,27,40.0,38.0,wide,1.184363700001995
04,2,7,28,38.0,40.0,wide,0.8341734999994515
04,2,7,29,13.0,19.0,wide,1.0002600000007078
04,2,7,30,12.0,17.0,wide,1.2010295000000042
04,2,8,1,12.0,13.0,wide,0.8510276000015438
04,2,8,2,24.0,29.0,wide,0.7173504999991565
04,2,8,3,21.0,25.0,wide,0.0833806999980879
04,2,8,4,13.0,15.0,wide,1.6516178999991098
04,2,8,5,17.0,21.0,wide,1.4015588000002026
04,2,8,6,11.0,11.0,wide,0.3337742000003345
04,2,8,7,35.0,33.0,wide,0.1668028999993112
04,2,8,8,35.0,35.0,wide,1.85205169999972
04,2,8,9,39.0,38.0,wide,0.983429600000818
04,2,8,10,36.0,34.0,wide,0.7839877000005799
04,2,8,11,14.0,16.0,wide,1.117665300000226
04,2,8,12,17.0,22.0,wide,0.3506807000012486
04,2,8,13,34.0,33.0,wide,1.4180478000016592
04,2,8,14,32.0,37.0,wide,1.3516307000027157
04,2,8,15,16.0,18.0,wide,1.7348158999993757
04,2,8,16,37.0,31.0,wide,1.91816480000125
04,2,8,17,35.0,28.0,wide,0.8674068000000261
04,2,8,18,15.0,19.0,wide,0.799918599997909
04,2,8,19,32.0,30.0,wide,1.6018865000005462
04,2,8,20,28.0,35.0,wide,0.6173825000005309
04,2,8,21,16.0,20.0,wide,1.468234099997062
04,2,8,22,24.0,26.0,wide,1.3345408000022871
04,2,8,23,10.0,10.0,wide,0.7174780999994255
04,2,8,24,24.0,25.0,wide,1.2641082000009192
04,2,8,25,32.0,28.0,wide,1.334946500002843
04,2,8,26,19.0,,wide,
04,2,8,27,37.0,30.0,wide,0.1167414000010467
04,2,8,28,13.0,14.0,wide,1.251314099998126
04,2,8,29,23.0,28.0,wide,1.150810700000875
04,2,8,30,40.0,37.0,wide,0.2170972999992955
05,1,1,1,20.0,23.0,narrow,1.2180366000011418
05,1,1,2,25.0,20.0,narrow,1.4005277999985992
05,1,1,3,13.0,10.0,narrow,0.2969436000003043
05,1,1,4,20.0,20.0,narrow,0.2136236999995162
05,1,1,5,14.0,14.0,narrow,0.9976860000006128
05,1,1,6,20.0,17.0,narrow,1.2014297999994596
05,1,1,7,13.0,13.0,narrow,1.9018918000001577
05,1,1,8,11.0,11.0,narrow,0.8675877999994555
05,1,1,9,15.0,15.0,narrow,1.918639899999107
05,1,1,10,16.0,20.0,narrow,1.2178609000002325
05,1,1,11,16.0,17.0,narrow,1.251261199999135
05,1,1,12,17.0,21.0,narrow,1.284396700000798
05,1,1,13,20.0,20.0,narrow,0.6840988999992987
05,1,1,14,17.0,18.0,narrow,1.301361399999223
05,1,1,15,12.0,12.0,narrow,0.3171997999997984
05,1,1,16,19.0,20.0,narrow,1.6347361000007368
05,1,1,17,14.0,13.0,narrow,0.7008208000006562
05,1,1,18,18.0,15.0,narrow,0.4839281999993545
05,1,1,19,21.0,21.0,narrow,0.8842316999998729
05,1,1,20,14.0,13.0,narrow,1.3012933999998495
05,1,1,21,16.0,16.0,narrow,1.935236299999815
05,1,1,22,22.0,24.0,narrow,1.418315700000676
05,1,1,23,16.0,17.0,narrow,1.3003855999995722
05,1,1,24,18.0,20.0,narrow,0.7473659000006592
05,1,1,25,17.0,17.0,narrow,0.8005678999998054
05,1,1,26,24.0,25.0,narrow,0.7438007999990077
05,1,1,27,18.0,18.0,narrow,1.134839500000453
05,1,1,28,18.0,,narrow,
05,1,1,29,10.0,15.0,narrow,1.7189300000009098
05,1,1,30,10.0,11.0,narrow,1.1516408999996202
05,1,2,1,20.0,17.0,narrow,1.3347560000001977
05,1,2,2,16.0,17.0,narrow,1.1845804000004136
05,1,2,3,14.0,13.0,narrow,0.8135938999985228
05,1,2,4,19.0,18.0,narrow,1.067945900000268
05,1,2,5,21.0,19.0,narrow,0.6637189000011858
05,1,2,6,10.0,10.0,narrow,0.1470019000007596
05,1,2,7,20.0,16.0,narrow,0.2803104000013263
05,1,2,8,19.0,20.0,narrow,0.0635207000013906
05,1,2,9,10.0,10.0,narrow,0.5136400000010326
05,1,2,10,13.0,15.0,narrow,0.3335538999999698
05,1,2,11,20.0,15.0,narrow,0.1501119000004109
05,1,2,12,17.0,14.0,narrow,1.116901000001235
05,1,2,13,21.0,20.0,narrow,0.667303099999117
05,1,2,14,11.0,10.0,narrow,0.3670781000000715
05,1,2,15,10.0,10.0,narrow,0.1169957000001886
05,1,2,16,11.0,11.0,narrow,0.5671266000008472
05,1,2,17,16.0,17.0,narrow,0.8344649999999092
05,1,2,18,19.0,18.0,narrow,1.0347790000014356
05,1,2,19,21.0,22.0,narrow,1.184890299999097
05,1,2,20,10.0,11.0,narrow,0.066601399999854
05,1,2,21,10.0,10.0,narrow,0.7006603000008909
05,1,2,22,12.0,12.0,narrow,1.6789235000014742
05,1,2,23,14.0,17.0,narrow,0.8340705000009621
05,1,2,24,19.0,19.0,narrow,0.0664949999991222
05,1,2,25,25.0,25.0,narrow,1.3847129000005225
05,1,2,26,20.0,21.0,narrow,0.9177394999987882
05,1,2,27,17.0,13.0,narrow,1.1348348000010446
05,1,2,28,11.0,10.0,narrow,0.9010605000003123
05,1,2,29,24.0,23.0,narrow,0.0499873999997362
05,1,2,30,19.0,22.0,narrow,0.3337666999996145
05,1,3,1,18.0,18.0,narrow,1.017890600000101
05,1,3,2,12.0,10.0,narrow,0.7475049000004219
05,1,3,3,15.0,17.0,narrow,0.7673590000013064
05,1,3,4,10.0,10.0,narrow,0.2502110000004904
05,1,3,5,13.0,14.0,narrow,0.2001772999992681
05,1,3,6,17.0,18.0,narrow,1.3682716000002983
05,1,3,7,14.0,15.0,narrow,1.41804620000039
05,1,3,8,19.0,20.0,narrow,0.734298299999864
05,1,3,9,15.0,16.0,narrow,1.7684516000008443
05,1,3,10,22.0,21.0,narrow,1.15087769999991
05,1,3,11,16.0,17.0,narrow,1.3850256000005174
05,1,3,12,22.0,19.0,narrow,0.2668544999996811
05,1,3,13,20.0,17.0,narrow,1.0179778000001534
05,1,3,14,21.0,17.0,narrow,1.2850264000007885
05,1,3,15,22.0,19.0,narrow,1.1013178000011976
05,1,3,16,10.0,10.0,narrow,0.5508506000005582
05,1,3,17,13.0,11.0,narrow,0.4638838999999279
05,1,3,18,21.0,19.0,narrow,1.617740199999389
05,1,3,19,21.0,19.0,narrow,1.635031699999672
05,1,3,20,22.0,20.0,narrow,0.7511842000003526
05,1,3,21,24.0,21.0,narrow,1.418385000000853
05,1,3,22,25.0,20.0,narrow,0.5674039000004996
05,1,3,23,14.0,13.0,narrow,0.8177829000014754
05,1,3,24,23.0,18.0,narrow,1.550741700000799
05,1,3,25,19.0,17.0,narrow,1.0171659000006912
05,1,3,26,16.0,19.0,narrow,0.166817200000878
05,1,3,27,15.0,12.0,narrow,0.8008112999996229
05,1,3,28,21.0,18.0,narrow,1.050964699999895
05,1,3,29,20.0,18.0,narrow,0.3169576999989658
05,1,3,30,25.0,23.0,narrow,0.700528100000156
05,1,4,1,17.0,18.0,narrow,1.351377599999978
05,1,4,2,10.0,10.0,narrow,0.0501518999990366
05,1,4,3,25.0,25.0,narrow,0.6341366999986349
05,1,4,4,10.0,10.0,narrow,0.8008669999999256
05,1,4,5,15.0,14.0,narrow,0.4996262000004208
05,1,4,6,20.0,20.0,narrow,1.08483410000008
05,1,4,7,16.0,18.0,narrow,0.2801638000000821
05,1,4,8,22.0,16.0,narrow,0.9140848999995796
05,1,4,9,19.0,17.0,narrow,1.532892200000788
05,1,4,10,15.0,16.0,narrow,0.217034399998738
05,1,4,11,10.0,10.0,narrow,0.5843262000016693
05,1,4,12,12.0,,narrow,
05,1,4,13,11.0,14.0,narrow,0.900783400000364
05,1,4,14,10.0,10.0,narrow,1.1345268999994005
05,1,4,15,20.0,22.0,narrow,0.3838066999996954
05,1,4,16,19.0,20.0,narrow,0.1504666999990149
05,1,4,17,13.0,10.0,narrow,0.367105299999821
05,1,4,18,21.0,19.0,narrow,1.2181822000002285
05,1,4,19,20.0,22.0,narrow,1.3345989000008558
05,1,4,20,16.0,16.0,narrow,1.0511564999997065
05,1,4,21,21.0,18.0,narrow,0.4338150000003224
05,1,4,22,11.0,10.0,narrow,1.1512612999995326
05,1,4,23,13.0,10.0,narrow,0.7173841000003449
05,1,4,24,14.0,17.0,narrow,1.101034900000741
05,1,4,25,17.0,15.0,narrow,1.3846343000004708
05,1,4,26,23.0,23.0,narrow,1.844696699999986
05,1,4,27,25.0,25.0,narrow,0.0836907000011706
05,1,4,28,10.0,10.0,narrow,0.567262299999129
05,1,4,29,18.0,14.0,narrow,1.1009237999987818
05,1,4,30,19.0,18.0,narrow,0.7010146000011446
05,1,5,1,32.0,23.0,wide,0.3835685000012745
05,1,5,2,32.0,30.0,wide,1.0176422000004095
05,1,5,3,21.0,20.0,wide,1.1178187000004982
05,1,5,4,14.0,10.0,wide,0.3002952000006189
05,1,5,5,12.0,10.0,wide,0.8344863000002078
05,1,5,6,17.0,17.0,wide,0.4970438000000285
05,1,5,7,26.0,26.0,wide,1.5182009000000107
05,1,5,8,36.0,30.0,wide,0.4972197000006417
05,1,5,9,17.0,10.0,wide,1.3454925999994884
05,1,5,10,35.0,23.0,wide,0.9178042999992612
05,1,5,11,13.0,10.0,wide,0.6505754000008892
05,1,5,12,27.0,20.0,wide,0.9178472999992664
05,1,5,13,26.0,28.0,wide,0.5170639999996638
05,1,5,14,28.0,22.0,wide,0.7678074000014021
05,1,5,15,16.0,10.0,wide,2.1179369000001316
05,1,5,16,21.0,15.0,wide,1.801959899999929
05,1,5,17,21.0,19.0,wide,1.7517474000014772
05,1,5,18,25.0,21.0,wide,0.917578799999319
05,1,5,19,31.0,30.0,wide,0.2836087999985466
05,1,5,20,23.0,28.0,wide,0.4169945999983611
05,1,5,21,28.0,17.0,wide,1.0515958000014507
05,1,5,22,28.0,32.0,wide,1.384781400000065
05,1,5,23,11.0,13.0,wide,0.6171942999990279
05,1,5,24,22.0,16.0,wide,1.1176467000004775
05,1,5,25,11.0,10.0,wide,0.9347314999995432
05,1,5,26,35.0,40.0,wide,0.6340980000004492
05,1,5,27,30.0,29.0,wide,0.58401430000049
05,1,5,28,19.0,16.0,wide,0.3837449999991804
05,1,5,29,18.0,12.0,wide,1.868459699999221
05,1,5,30,17.0,19.0,wide,0.5973986000008153
05,1,6,1,18.0,18.0,wide,0.733917500001553
05,1,6,2,26.0,22.0,wide,0.4002459000003
05,1,6,3,23.0,27.0,wide,0.8844601000000694
05,1,6,4,21.0,28.0,wide,2.0689554999989923
05,1,6,5,28.0,27.0,wide,1.1180696999999782
05,1,6,6,14.0,19.0,wide,2.1336991999996826
05,1,6,7,12.0,10.0,wide,1.6850448999994114
05,1,6,8,37.0,40.0,wide,0.4337470999998913
05,1,6,9,39.0,40.0,wide,0.7678202999995847
05,1,6,10,28.0,29.0,wide,0.9339798000000884
05,1,6,11,15.0,12.0,wide,1.568341100000907
05,1,6,12,37.0,40.0,wide,0.8510456000003614
05,1,6,13,14.0,15.0,wide,0.4305244000006496
05,1,6,14,22.0,21.0,wide,0.2636243999986618
05,1,6,15,32.0,23.0,wide,2.1987118999986706
05,1,6,16,28.0,30.0,wide,0.6997012000010727
05,1,6,17,38.0,40.0,wide,0.6435794000008173
05,1,6,18,28.0,23.0,wide,0.8341889000002993
05,1,6,19,20.0,14.0,wide,1.5518021999996563
05,1,6,20,24.0,,wide,
05,1,6,21,19.0,23.0,wide,0.0666940000010072
05,1,6,22,14.0,14.0,wide,1.1177256999999372
05,1,6,23,11.0,10.0,wide,0.6173807999985002
05,1,6,24,31.0,30.0,wide,1.918493999999555
05,1,6,25,30.0,28.0,wide,0.9846620000007532
05,1,6,26,39.0,40.0,wide,0.6675632000005862
05,1,6,27,21.0,19.0,wide,0.7499293999990186
05,1,6,28,14.0,12.0,wide,2.1688337000014144
05,1,6,29,13.0,10.0,wide,0.6673958999999741
05,1,6,30,13.0,12.0,wide,0.1334733000003325
05,1,7,1,25.0,32.0,wide,2.218951499999094
05,1,7,2,18.0,15.0,wide,1.2515971000011632
05,1,7,3,31.0,32.0,wide,2.002539399998568
05,1,7,4,14.0,10.0,wide,0.5005853999991814
05,1,7,5,40.0,31.0,wide,1.835304799998994
05,1,7,6,12.0,10.0,wide,0.2500622999996267
05,1,7,7,23.0,18.0,wide,1.6181182000000265
05,1,7,8,38.0,31.0,wide,1.5350135999997292
05,1,7,9,36.0,40.0,wide,0.6152727999997296
05,1,7,10,16.0,14.0,wide,2.051118000001225
05,1,7,11,37.0,33.0,wide,1.88439279999875
05,1,7,12,40.0,40.0,wide,1.2013173999985156
05,1,7,13,32.0,30.0,wide,0.967500500000824
05,1,7,14,10.0,10.0,wide,0.1335613999999623
05,1,7,15,34.0,32.0,wide,1.6007457000014256
05,1,7,16,35.0,20.0,wide,0.5001333000000159
05,1,7,17,17.0,13.0,wide,1.3678956999992806
05,1,7,18,19.0,30.0,wide,0.8176627000011649
05,1,7,19,34.0,34.0,wide,1.8008668999991642
05,1,7,20,35.0,31.0,wide,0.2836703000011766
05,1,7,21,33.0,14.0,wide,0.7842658000008669
05,1,7,22,26.0,23.0,wide,0.1669758999996702
05,1,7,23,29.0,27.0,wide,0.7509642999993957
05,1,7,24,10.0,10.0,wide,1.118134000000282
05,1,7,25,32.0,35.0,wide,1.7517456999994463
05,1,7,26,28.0,29.0,wide,1.9019707000006747
05,1,7,27,20.0,18.0,wide,0.6504912999989756
05,1,7,28,21.0,19.0,wide,1.7446381000008842
05,1,7,29,33.0,30.0,wide,1.0176304999986314
05,1,7,30,26.0,27.0,wide,0.0634826000004977
05,1,8,1,18.0,21.0,wide,1.0510737000004156
05,1,8,2,12.0,14.0,wide,0.2667134999992413
05,1,8,3,11.0,10.0,wide,0.7009961000003386
05,1,8,4,13.0,12.0,wide,1.5017766000000847
05,1,8,5,13.0,12.0,wide,2.1356446999998298
05,1,8,6,33.0,33.0,wide,1.5014671000008093
05,1,8,7,32.0,37.0,wide,1.3286167999995089
05,1,8,8,27.0,35.0,wide,1.584601600001406
05,1,8,9,31.0,24.0,wide,1.200835099998585
05,1,8,10,27.0,33.0,wide,0.233655699999872
05,1,8,11,35.0,30.0,wide,1.662178099999437
05,1,8,12,40.0,40.0,wide,0.6510870000001887
05,1,8,13,11.0,10.0,wide,0.5174442999996245
05,1,8,14,26.0,31.0,wide,1.3478063999991718
05,1,8,15,38.0,33.0,wide,1.031085399999938
05,1,8,16,13.0,12.0,wide,0.3636982999996689
05,1,8,17,15.0,11.0,wide,1.518016699999862
05,1,8,18,16.0,22.0,wide,0.2669375999994372
05,1,8,19,30.0,26.0,wide,1.6684825000011188
05,1,8,20,31.0,27.0,wide,1.9517708999992465
05,1,8,21,14.0,12.0,wide,0.2836812999994436
05,1,8,22,35.0,31.0,wide,1.1842927999987296
05,1,8,23,34.0,29.0,wide,1.4845513999989637
05,1,8,24,15.0,13.0,wide,1.5682902000007743
05,1,8,25,23.0,30.0,wide,1.151216199999908
05,1,8,26,22.0,26.0,wide,1.067936000001282
05,1,8,27,19.0,31.0,wide,1.5851753999995708
05,1,8,28,31.0,32.0,wide,1.6341425000009622
05,1,8,29,15.0,18.0,wide,0.4159667000003537
05,1,8,30,13.0,10.0,wide,0.9174103000004834
05,2,1,1,19.0,18.0,wide,1.1013026000000536
05,2,1,2,33.0,31.0,wide,1.167909600000712
05,2,1,3,15.0,15.0,wide,1.751819400000386
05,2,1,4,36.0,32.0,wide,1.5513461000009556
05,2,1,5,14.0,12.0,wide,1.935312099998555
05,2,1,6,22.0,17.0,wide,0.9832749999986844
05,2,1,7,25.0,28.0,wide,0.717261799996777
05,2,1,8,32.0,31.0,wide,1.351178600001731
05,2,1,9,33.0,30.0,wide,0.4838646999996854
05,2,1,10,23.0,21.0,wide,0.7172656000002462
05,2,1,11,26.0,22.0,wide,0.4506173000008857
05,2,1,12,40.0,35.0,wide,0.9343311000011454
05,2,1,13,37.0,31.0,wide,1.4014525000020512
05,2,1,14,38.0,34.0,wide,0.8807568999982323
05,2,1,15,19.0,20.0,wide,1.0677663999995275
05,2,1,16,33.0,25.0,wide,1.2680040999985067
05,2,1,17,25.0,22.0,wide,1.2347854999970878
05,2,1,18,36.0,33.0,wide,1.751769599999534
05,2,1,19,36.0,30.0,wide,0.9666299000018626
05,2,1,20,39.0,29.0,wide,0.6506913999983226
05,2,1,21,16.0,14.0,wide,2.0853723000000173
05,2,1,22,19.0,17.0,wide,0.5504956999975548
05,2,1,23,13.0,13.0,wide,0.5004890999989584
05,2,1,24,27.0,22.0,wide,1.3346533000003546
05,2,1,25,24.0,19.0,wide,1.851958499999455
05,2,1,26,27.0,23.0,wide,1.017555499998707
05,2,1,27,19.0,17.0,wide,0.6339274000019941
05,2,1,28,34.0,35.0,wide,1.5849309000004723
05,2,1,29,16.0,13.0,wide,1.6847974999982398
05,2,1,30,35.0,31.0,wide,1.1679449000002933
05,2,2,1,39.0,31.0,wide,1.8352305999978853
05,2,2,2,38.0,30.0,wide,0.9676719000017328
05,2,2,3,25.0,24.0,wide,1.3346640000017942
05,2,2,4,13.0,10.0,wide,0.6840828999993391
05,2,2,5,17.0,16.0,wide,0.850637799998367
05,2,2,6,40.0,32.0,wide,1.4171289000005345
05,2,2,7,24.0,23.0,wide,1.1678320999999414
05,2,2,8,30.0,29.0,wide,1.3851146000015433
05,2,2,9,16.0,17.0,wide,1.8281551000000036
05,2,2,10,33.0,31.0,wide,0.2836605999982566
05,2,2,11,15.0,15.0,wide,0.1833294999996724
05,2,2,12,19.0,18.0,wide,1.8185760000014852
05,2,2,13,38.0,32.0,wide,2.1020035999972606
05,2,2,14,15.0,15.0,wide,0.380417700001999
05,2,2,15,12.0,10.0,wide,0.6509072000008018
05,2,2,16,11.0,10.0,wide,0.534156300000177
05,2,2,17,14.0,16.0,wide,0.1466256999992765
05,2,2,18,36.0,31.0,wide,1.4350092000022414
05,2,2,19,19.0,17.0,wide,1.1178030999981274
05,2,2,20,34.0,28.0,wide,1.1510507999992114
05,2,2,21,30.0,32.0,wide,1.7015863999986325
05,2,2,22,29.0,31.0,wide,1.3013460000001942
05,2,2,23,24.0,28.0,wide,1.2679389000004448
05,2,2,24,20.0,18.0,wide,1.5013565000008384
05,2,2,25,39.0,30.0,wide,0.6840067000011913
05,2,2,26,27.0,23.0,wide,0.9511318000004394
05,2,2,27,34.0,26.0,wide,1.0513042000020505
05,2,2,28,18.0,17.0,wide,0.3636455000014393
05,2,2,29,24.0,,wide,
05,2,2,30,12.0,10.0,wide,0.6508633000012196
05,2,3,1,26.0,19.0,wide,0.9679279000010864
05,2,3,2,21.0,23.0,wide,1.1013430999992124
05,2,3,3,22.0,23.0,wide,1.8853197999997064
05,2,3,4,18.0,17.0,wide,1.1678984999998647
05,2,3,5,22.0,23.0,wide,1.1347873999984586
05,2,3,6,19.0,18.0,wide,0.9342023999997764
05,2,3,7,27.0,23.0,wide,1.3180633000010855
05,2,3,8,40.0,36.0,wide,1.1002840000001015
05,2,3,9,25.0,23.0,wide,1.5995096000006015
05,2,3,10,37.0,30.0,wide,0.367036100000405
05,2,3,11,27.0,26.0,wide,1.4181530000023486
05,2,3,12,24.0,16.0,wide,1.0309922000014922
05,2,3,13,27.0,22.0,wide,1.2687193999990996
05,2,3,14,19.0,16.0,wide,1.8353635999992548
05,2,3,15,17.0,17.0,wide,0.8176529999982449
05,2,3,16,25.0,16.0,wide,1.2014348000011523
05,2,3,17,14.0,10.0,wide,0.1505773999997472
05,2,3,18,17.0,16.0,wide,2.085953099998733
05,2,3,19,10.0,10.0,wide,0.2801354999974137
05,2,3,20,40.0,33.0,wide,0.9675884999996924
05,2,3,21,25.0,24.0,wide,0.5162073999999848
05,2,3,22,34.0,31.0,wide,0.6839008999995713
05,2,3,23,21.0,20.0,wide,0.967924700002186
05,2,3,24,15.0,11.0,wide,1.117958799997723
05,2,3,25,16.0,13.0,wide,1.518375700001343
05,2,3,26,34.0,23.0,wide,0.1001781999984814
05,2,3,27,22.0,19.0,wide,0.3836561999996775
05,2,3,28,38.0,34.0,wide,0.4336436999983561
05,2,3,29,38.0,32.0,wide,0.6174062999998569
05,2,3,30,39.0,33.0,wide,0.2836696000013035
05,2,4,1,14.0,12.0,wide,0.100146600001608
05,2,4,2,36.0,28.0,wide,0.2001400000008288
05,2,4,3,37.0,31.0,wide,0.7678677000003518
05,2,4,4,30.0,31.0,wide,1.2012494999980845
05,2,4,5,17.0,14.0,wide,1.0680028999995557
05,2,4,6,24.0,22.0,wide,1.3181070999999065
05,2,4,7,18.0,15.0,wide,1.2012885000003737
05,2,4,8,20.0,14.0,wide,1.251358800000162
05,2,4,9,32.0,23.0,wide,1.4013481000001775
05,2,4,10,32.0,29.0,wide,0.7508940000006987
05,2,4,11,23.0,21.0,wide,0.9340396000006876
05,2,4,12,33.0,26.0,wide,0.3804773000010755
05,2,4,13,18.0,15.0,wide,0.5338723000022583
05,2,4,14,11.0,10.0,wide,1.2014296999986982
05,2,4,15,36.0,34.0,wide,0.4137128000002121
05,2,4,16,32.0,30.0,wide,0.1970159000011335
05,2,4,17,19.0,21.0,wide,0.5769370000016352
05,2,4,18,32.0,32.0,wide,0.797499100001005
05,2,4,19,23.0,22.0,wide,0.3971167000017885
05,2,4,20,13.0,10.0,wide,0.6340955999985454
05,2,4,21,14.0,16.0,wide,1.3679799999990792
05,2,4,22,20.0,16.0,wide,1.2511062000012316
05,2,4,23,17.0,16.0,wide,0.0331445000010717
