subject	trial	session	run	trial_in_run	n1	n2	p1	p2	domain	choice	rt
pil02	1	1	1	2	20.0	32.0	1.0	0.55	loss	True	1.084503200000654
pil02	2	1	1	3	14.0	18.0	1.0	0.55	loss	False	1.183401899999808
pil02	3	1	1	4	5.0	14.0	1.0	0.55	loss	False	0.834302100000059
pil02	4	1	1	5	7.0	19.0	1.0	0.55	loss	False	0.7842293000003338
pil02	5	1	1	6	5.0	6.0	1.0	0.55	gain	False	1.150545299999962
pil02	6	1	1	7	10.0	22.0	1.0	0.55	gain	True	0.5506841000005807
pil02	7	1	1	8	14.0	21.0	1.0	0.55	gain	False	0.4172798999998122
pil02	8	1	1	9	7.0	9.0	1.0	0.55	gain	False	0.417219699999805
pil02	9	1	1	10	20.0	26.0	1.0	0.55	gain	False	0.4840211000000636
pil02	10	1	1	11	52.0	20.0	0.55	1.0	loss	True	1.751316400000178
pil02	11	1	1	12	20.0	7.0	0.55	1.0	loss	True	1.1180944999996427
pil02	12	1	1	13	18.0	10.0	0.55	1.0	loss	True	1.6016590999997504
pil02	13	1	1	14	6.0	5.0	0.55	1.0	loss	False	0.2838247999998202
pil02	14	1	1	15	35.0	14.0	0.55	1.0	loss	True	1.6683975000005375
pil02	15	1	1	16	21.0	14.0	0.55	1.0	gain	False	0.9843555999995884
pil02	16	1	1	17	50.0	20.0	0.55	1.0	gain	False	0.4339236999994682
pil02	17	1	1	18	10.0	7.0	0.55	1.0	gain	True	0.2338187000004836
pil02	18	1	1	19	15.0	5.0	0.55	1.0	gain	False	0.8335672000002887
pil02	19	1	1	20	26.0	10.0	0.55	1.0	gain	False	0.5673930000002656
pil02	20	1	2	1	7.0	11.0	1.0	0.55	loss	True	0.6841162000000622
pil02	21	1	2	2	5.0	7.0	1.0	0.55	loss	True	0.9844365999997536
pil02	22	1	2	3	10.0	21.0	1.0	0.55	loss	False	1.2214231999996628
pil02	23	1	2	4	14.0	16.0	1.0	0.55	loss	True	0.3006420000001526
pil02	24	1	2	5	20.0	50.0	1.0	0.55	loss	False	0.9335962000004656
pil02	25	1	2	6	20.0	39.0	1.0	0.55	gain	True	0.6674439999997048
pil02	26	1	2	7	10.0	21.0	1.0	0.55	gain	True	0.116919600000088
pil02	27	1	2	8	5.0	6.0	1.0	0.55	gain	False	0.6669664999999441
pil02	28	1	2	9	7.0	19.0	1.0	0.55	gain	True	0.3338214999994306
pil02	29	1	2	10	14.0	20.0	1.0	0.55	gain	False	1.201281700000436
pil02	30	1	2	11	15.0	7.0	0.55	1.0	loss	True	0.9335784000004425
pil02	31	1	2	12	45.0	20.0	0.55	1.0	loss	True	0.6842058999991707
pil02	32	1	2	13	13.0	10.0	0.55	1.0	loss	True	0.500619499999658
pil02	33	1	2	14	30.0	14.0	0.55	1.0	loss	True	0.6674769999999342
pil02	34	1	2	15	14.0	5.0	0.55	1.0	loss	True	0.2170759000000544
pil02	35	1	2	16	7.0	5.0	0.55	1.0	gain	True	0.9006749999998362
pil02	36	1	2	17	22.0	14.0	0.55	1.0	gain	False	1.1845166000002791
pil02	37	1	2	18	14.0	7.0	0.55	1.0	gain	False	0.4672410000002855
pil02	38	1	2	19	55.0	20.0	0.55	1.0	gain	False	0.6507574999995995
pil02	39	1	2	20	12.0	10.0	0.55	1.0	gain	True	1.2513488000004145
pil02	40	1	3	1	27.0	20.0	0.55	1.0	gain	False	0.5335306000006312
pil02	41	1	3	2	8.0	5.0	0.55	1.0	gain	False	0.4506006999999954
pil02	42	1	3	3	17.0	10.0	0.55	1.0	gain	True	0.6340122000001429
pil02	43	1	3	4	29.0	14.0	0.55	1.0	gain	False	0.7341825000003155
pil02	44	1	3	5	19.0	7.0	0.55	1.0	gain	False	0.98442999999952
pil02	45	1	3	6	50.0	20.0	0.55	1.0	loss	False	1.117682000000087
pil02	46	1	3	7	17.0	10.0	0.55	1.0	loss	True	0.317140600000144
pil02	47	1	3	8	18.0	14.0	0.55	1.0	loss	True	0.8509751000001415
pil02	48	1	3	10	11.0	5.0	0.55	1.0	loss	True	1.2012877999995908
pil02	49	1	3	11	20.0	25.0	1.0	0.55	gain	False	0.5172763999999006
pil02	50	1	3	12	14.0	18.0	1.0	0.55	gain	True	0.9879080999998848
pil02	51	1	3	13	10.0	20.0	1.0	0.55	gain	False	0.3672538000000429
pil02	52	1	3	14	7.0	18.0	1.0	0.55	gain	True	0.6341062000001045
pil02	53	1	3	15	5.0	9.0	1.0	0.55	gain	True	1.1679653999999855
pil02	54	1	3	16	14.0	33.0	1.0	0.55	loss	False	0.4673077999996167
pil02	55	1	3	17	5.0	11.0	1.0	0.55	loss	True	1.0844821000000593
pil02	56	1	3	18	10.0	15.0	1.0	0.55	loss	True	0.7174980999998297
pil02	57	1	3	19	20.0	25.0	1.0	0.55	loss	True	2.3523632999995243
pil02	58	1	3	20	7.0	11.0	1.0	0.55	loss	True	0.2337508000000525
pil02	59	1	4	1	12.0	10.0	0.55	1.0	loss	False	1.101068199999638
pil02	60	1	4	2	8.0	7.0	0.55	1.0	loss	True	0.3505419000002874
pil02	61	1	4	3	9.0	5.0	0.55	1.0	loss	True	0.1837028999998438
pil02	62	1	4	4	55.0	20.0	0.55	1.0	loss	True	0.3671882999997251
pil02	63	1	4	5	33.0	14.0	0.55	1.0	loss	True	0.4668287999993481
pil02	64	1	4	6	10.0	23.0	1.0	0.55	gain	True	0.7675847000000431
pil02	65	1	4	7	20.0	47.0	1.0	0.55	gain	True	0.3338236999998116
pil02	66	1	4	8	7.0	17.0	1.0	0.55	gain	True	1.1046048999996856
pil02	67	1	4	9	5.0	12.0	1.0	0.55	gain	False	0.8175789999995686
pil02	68	1	4	10	14.0	32.0	1.0	0.55	gain	True	0.5502307000006113
pil02	69	1	4	11	10.0	25.0	1.0	0.55	loss	False	0.7508436999996775
pil02	70	1	4	12	7.0	19.0	1.0	0.55	loss	False	0.5006511000001694
pil02	71	1	4	13	20.0	27.0	1.0	0.55	loss	True	0.8503573000007236
pil02	72	1	4	14	14.0	17.0	1.0	0.55	loss	True	0.8842761000005623
pil02	73	1	4	15	5.0	12.0	1.0	0.55	loss	False	0.4005669999996826
pil02	74	1	4	16	42.0	14.0	0.55	1.0	gain	False	0.3837348000006386
pil02	75	1	4	17	23.0	10.0	0.55	1.0	gain	False	0.4005705999998383
pil02	76	1	4	18	58.0	20.0	0.55	1.0	gain	False	0.5840695000006235
pil02	77	1	4	19	19.0	7.0	0.55	1.0	gain	False	0.6174339000008331
pil02	78	1	4	20	10.0	5.0	0.55	1.0	gain	True	0.9677305000004708
pil02	79	1	5	1	10.0	12.0	1.0	0.55	loss	True	0.5006237000006877
pil02	80	1	5	2	20.0	23.0	1.0	0.55	loss	False	0.4339314999997441
pil02	81	1	5	3	5.0	6.0	1.0	0.55	loss	True	0.5669183999998495
pil02	82	1	5	4	14.0	27.0	1.0	0.55	loss	False	0.534048200000143
pil02	83	1	5	5	7.0	17.0	1.0	0.55	loss	False	0.8509684000000561
pil02	84	1	5	6	30.0	14.0	0.55	1.0	gain	False	0.1672365999993417
pil02	85	1	5	7	9.0	5.0	0.55	1.0	gain	True	0.3004547999998976
pil02	86	1	5	8	22.0	10.0	0.55	1.0	gain	False	0.449464799999987
pil02	87	1	5	9	30.0	20.0	0.55	1.0	gain	True	0.8677538000001732
pil02	88	1	5	10	20.0	7.0	0.55	1.0	gain	False	0.4838068999997631
pil02	89	1	5	11	12.0	5.0	0.55	1.0	loss	False	0.9342272000003504
pil02	90	1	5	12	16.0	14.0	0.55	1.0	loss	False	1.117981499999587
pil02	91	1	5	13	25.0	20.0	0.55	1.0	loss	False	1.3514062000004117
pil02	92	1	5	14	13.0	7.0	0.55	1.0	loss	True	0.1503488999996989
pil02	93	1	5	15	14.0	10.0	0.55	1.0	loss	True	0.2504252000007909
pil02	94	1	5	16	5.0	15.0	1.0	0.55	gain	False	0.3839785999998923
pil02	95	1	5	17	7.0	16.0	1.0	0.55	gain	True	0.8509177000005366
pil02	96	1	5	18	14.0	42.0	1.0	0.55	gain	True	0.450571299999865
pil02	97	1	5	19	20.0	52.0	1.0	0.55	gain	True	1.0495068999998691
pil02	98	1	5	20	10.0	18.0	1.0	0.55	gain	False	0.7008255000000645
pil02	99	1	6	1	10.0	26.0	1.0	0.55	loss	False	0.617386500000066
pil02	100	1	6	2	14.0	18.0	1.0	0.55	loss	True	0.4839418999999907
pil02	101	1	6	3	5.0	15.0	1.0	0.55	loss	False	0.2335438999998587
pil02	102	1	6	4	7.0	9.0	1.0	0.55	loss	True	0.667455599999812
pil02	103	1	6	5	20.0	29.0	1.0	0.55	loss	True	0.5173474000002898
pil02	104	1	6	6	18.0	14.0	0.55	1.0	gain	True	1.017279800000324
pil02	105	1	6	7	13.0	5.0	0.55	1.0	gain	False	0.4839927000002717
pil02	106	1	6	8	18.0	7.0	0.55	1.0	gain	False	0.4839664999999513
pil02	107	1	6	9	33.0	20.0	0.55	1.0	gain	False	0.8175573999996857
pil02	108	1	6	10	25.0	10.0	0.55	1.0	gain	False	0.8843127999998615
pil02	109	1	6	11	25.0	10.0	0.55	1.0	loss	False	6.786537699999826
pil02	110	1	6	12	21.0	7.0	0.55	1.0	loss	True	0.0023591999997734
pil02	111	1	6	13	27.0	14.0	0.55	1.0	loss	True	1.0345732000005228
pil02	112	1	6	14	41.0	20.0	0.55	1.0	loss	False	1.434253399999761
pil02	113	1	6	15	6.0	5.0	0.55	1.0	loss	True	0.6341035999994062
pil02	114	1	6	16	5.0	14.0	1.0	0.55	gain	False	0.9510846000002856
pil02	115	1	6	17	10.0	26.0	1.0	0.55	gain	False	1.1512080000011338
pil02	116	1	6	18	20.0	45.0	1.0	0.55	gain	False	1.4515814000005776
pil02	117	1	6	19	7.0	10.0	1.0	0.55	gain	True	1.0836699999999837
pil02	118	1	6	20	14.0	29.0	1.0	0.55	gain	False	0.3838964999995369
pil02	119	1	7	1	24.0	20.0	0.55	1.0	loss	True	0.5340944999989006
pil02	120	1	7	2	20.0	14.0	0.55	1.0	loss	True	0.70085360000121
pil02	121	1	7	3	16.0	10.0	0.55	1.0	loss	True	4.420742899999823
pil02	122	1	7	4	19.0	7.0	0.55	1.0	loss	True	0.2502030000014201
pil02	123	1	7	5	15.0	5.0	0.55	1.0	loss	True	0.0335645000013755
pil02	124	1	7	6	12.0	5.0	0.55	1.0	gain	True	0.3171378000006228
pil02	125	1	7	7	47.0	20.0	0.55	1.0	gain	False	0.4673211999997875
pil02	126	1	7	8	11.0	7.0	0.55	1.0	gain	False	0.4672652000008384
pil02	127	1	7	9	25.0	14.0	0.55	1.0	gain	True	1.0010418999991089
pil02	128	1	7	10	13.0	10.0	0.55	1.0	gain	True	0.934318200001144
pil02	129	1	7	11	7.0	10.0	1.0	0.55	loss	True	0.5506805000004533
pil02	130	1	7	12	10.0	15.0	1.0	0.55	loss	True	0.7003134000005957
pil02	131	1	7	13	20.0	41.0	1.0	0.55	loss	False	1.518212799999645
pil02	132	1	7	14	14.0	32.0	1.0	0.55	loss	False	0.6173940999997285
pil02	133	1	7	15	5.0	11.0	1.0	0.55	loss	False	0.4673038000000815
pil02	134	1	7	16	5.0	11.0	1.0	0.55	gain	True	0.8008969999991109
pil02	135	1	7	17	10.0	30.0	1.0	0.55	gain	True	0.4172311999991507
pil02	136	1	7	18	7.0	15.0	1.0	0.55	gain	True	0.7508836000015435
pil02	137	1	7	19	20.0	41.0	1.0	0.55	gain	False	0.5507457000003342
pil02	138	1	7	20	14.0	37.0	1.0	0.55	gain	True	0.3332305000003543
pil02	139	1	8	1	26.0	10.0	0.55	1.0	loss	True	0.1503010999986145
pil02	140	1	8	2	18.0	14.0	0.55	1.0	loss	False	1.0669409000001906
pil02	141	1	8	3	35.0	20.0	0.55	1.0	loss	True	0.2337239999997109
pil02	142	1	8	4	10.0	7.0	0.55	1.0	loss	True	0.3338132999997469
pil02	143	1	8	5	13.0	5.0	0.55	1.0	loss	True	0.367118300000584
pil02	144	1	8	6	5.0	10.0	1.0	0.55	gain	True	0.7341641000002852
pil02	145	1	8	7	7.0	20.0	1.0	0.55	gain	True	0.1002776999994239
pil02	146	1	8	8	14.0	16.0	1.0	0.55	gain	False	0.6674759999987145
pil02	147	1	8	9	20.0	30.0	1.0	0.55	gain	False	0.6006997000004048
pil02	148	1	8	10	10.0	13.0	1.0	0.55	gain	True	1.0843752000000677
pil02	149	1	8	11	14.0	22.0	1.0	0.55	loss	True	1.0844949000002089
pil02	150	1	8	12	10.0	18.0	1.0	0.55	loss	True	1.4181661000002066
pil02	151	1	8	13	5.0	8.0	1.0	0.55	loss	True	0.700445899999977
pil02	152	1	8	14	7.0	14.0	1.0	0.55	loss	True	1.00114869999922
pil02	153	1	8	15	20.0	45.0	1.0	0.55	loss	False	0.3338794999999663
pil02	154	1	8	16	9.0	7.0	0.55	1.0	gain	False	0.7709938000007241
pil02	155	1	8	17	13.0	5.0	0.55	1.0	gain	False	0.2837514000002841
pil02	156	1	8	18	23.0	20.0	0.55	1.0	gain	True	0.6671280999998999
pil02	157	1	8	19	37.0	14.0	0.55	1.0	gain	False	0.7341883999997663
pil02	158	1	8	20	15.0	10.0	0.55	1.0	gain	True	0.6341084000014234
pil02	159	1	9	1	7.0	21.0	1.0	0.55	loss	False	0.5502623000011226
pil02	160	1	9	2	10.0	30.0	1.0	0.55	loss	False	0.717528900000616
pil02	161	1	9	3	14.0	42.0	1.0	0.55	loss	False	0.6674464000006992
pil02	162	1	9	4	20.0	43.0	1.0	0.55	loss	False	0.533986399999776
pil02	163	1	9	5	5.0	13.0	1.0	0.55	loss	True	0.8843164000009267
pil02	164	1	9	6	14.0	27.0	1.0	0.55	gain	False	0.3003979000004619
pil02	165	1	9	7	5.0	9.0	1.0	0.55	gain	True	0.8508731999991141
pil02	166	1	9	8	20.0	27.0	1.0	0.55	gain	False	0.5507560999994894
pil02	167	1	9	9	7.0	10.0	1.0	0.55	gain	False	0.383683200001542
pil02	168	1	9	10	10.0	12.0	1.0	0.55	gain	True	0.8676562000000558
pil02	169	1	9	11	22.0	14.0	0.55	1.0	loss	True	1.1845635999998194
pil02	170	1	9	12	28.0	10.0	0.55	1.0	loss	False	0.4506149000008008
pil02	171	1	9	13	8.0	5.0	0.55	1.0	loss	False	0.7675882000003185
pil02	172	1	9	14	16.0	7.0	0.55	1.0	loss	False	0.3667053999997733
pil02	173	1	9	15	58.0	20.0	0.55	1.0	loss	True	0.3004602000000886
pil02	174	1	9	16	15.0	5.0	0.55	1.0	gain	False	0.5006011999994371
pil02	175	1	9	17	32.0	14.0	0.55	1.0	gain	True	1.3166923999997096
pil02	176	1	9	18	30.0	10.0	0.55	1.0	gain	False	0.3671964000004948
pil02	177	1	9	19	45.0	20.0	0.55	1.0	gain	False	0.4505520999991859
pil02	178	1	9	20	13.0	7.0	0.55	1.0	gain	False	0.4872310000009747
pil02	179	1	10	1	13.0	10.0	0.55	1.0	loss	True	0.5673917999993137
pil02	180	1	10	2	13.0	5.0	0.55	1.0	loss	False	1.084560600000259
pil02	181	1	10	3	25.0	14.0	0.55	1.0	loss	True	0.1002632999989145
pil02	182	1	10	4	60.0	20.0	0.55	1.0	loss	True	0.733414600001197
pil02	183	1	10	5	12.0	7.0	0.55	1.0	loss	True	0.0168551000005976
pil02	184	1	10	6	35.0	20.0	0.55	1.0	gain	True	0.4838991000015227
pil02	185	1	10	7	15.0	7.0	0.55	1.0	gain	False	0.4669420999998834
pil02	186	1	10	8	12.0	10.0	0.55	1.0	gain	False	1.1678575999994791
pil02	187	1	10	9	11.0	5.0	0.55	1.0	gain	False	2.2188378000009834
pil02	188	1	10	10	20.0	14.0	0.55	1.0	gain	True	1.384766099999979
pil02	189	1	10	11	14.0	24.0	1.0	0.55	loss	True	0.5506822999996075
pil02	190	1	10	12	5.0	7.0	1.0	0.55	loss	True	1.03354760000002
pil02	191	1	10	13	7.0	10.0	1.0	0.55	loss	True	0.684050599998983
pil02	192	1	10	14	10.0	13.0	1.0	0.55	loss	False	1.3350436000000627
pil02	193	1	10	15	20.0	33.0	1.0	0.55	loss	False	0.6174205999996047
pil02	194	1	10	16	14.0	19.0	1.0	0.55	gain	False	0.5674202000009245
pil02	195	1	10	17	20.0	60.0	1.0	0.55	gain	True	0.5146599999989405
pil02	196	1	10	18	7.0	8.0	1.0	0.55	gain	False	1.0677827000017714
pil02	197	1	10	19	10.0	29.0	1.0	0.55	gain	True	0.4005968000001303
pil02	198	1	10	20	5.0	8.0	1.0	0.55	gain	False	0.6835109000003285
pil02	199	2	1	1	28.0	10.0	0.55	1.0	gain	False	0.4672786999999516
pil02	200	2	1	2	7.0	5.0	0.55	1.0	gain	True	0.5004937000003338
pil02	201	2	1	3	9.0	7.0	0.55	1.0	gain	True	0.9511041000005208
pil02	202	2	1	4	32.0	20.0	0.55	1.0	gain	True	1.4015183999999865
pil02	203	2	1	5	19.0	14.0	0.55	1.0	gain	False	0.8676573000002463
pil02	204	2	1	6	39.0	20.0	0.55	1.0	loss	True	0.8009095999995992
pil02	205	2	1	7	10.0	5.0	0.55	1.0	loss	True	0.5835500999992433
pil02	206	2	1	8	11.0	7.0	0.55	1.0	loss	True	0.9176883000000088
pil02	207	2	1	9	29.0	14.0	0.55	1.0	loss	False	0.7341728999999759
pil02	208	2	1	10	29.0	10.0	0.55	1.0	loss	True	0.0023345999998127
pil02	209	2	1	11	5.0	7.0	1.0	0.55	gain	False	0.4173106000007465
pil02	210	2	1	12	20.0	43.0	1.0	0.55	gain	False	0.6007614000000387
pil02	211	2	1	13	7.0	21.0	1.0	0.55	gain	False	0.8343105000003561
pil02	212	2	1	14	10.0	25.0	1.0	0.55	gain	True	0.4506123000001309
pil02	213	2	1	15	14.0	38.0	1.0	0.55	gain	True	0.2670031000006929
pil02	214	2	1	16	14.0	30.0	1.0	0.55	loss	True	0.8010567999999694
pil02	215	2	1	17	10.0	29.0	1.0	0.55	loss	False	0.4506077000005462
pil02	216	2	1	18	7.0	9.0	1.0	0.55	loss	True	0.6174311999993733
pil02	217	2	1	19	5.0	13.0	1.0	0.55	loss	False	0.8676622999992105
pil02	218	2	1	20	20.0	55.0	1.0	0.55	loss	False	0.7669108000000051
pil02	219	2	2	1	12.0	7.0	0.55	1.0	gain	False	0.400839600000836
pil02	220	2	2	2	24.0	20.0	0.55	1.0	gain	True	0.6841963000006217
pil02	221	2	2	3	6.0	5.0	0.55	1.0	gain	False	0.3833039000001008
pil02	222	2	2	4	24.0	10.0	0.55	1.0	gain	True	0.8175941999998031
pil02	223	2	2	5	27.0	14.0	0.55	1.0	gain	False	0.3004832999995415
pil02	224	2	2	6	27.0	20.0	0.55	1.0	loss	True	1.2503227999995945
pil02	225	2	2	7	9.0	7.0	0.55	1.0	loss	True	0.3337970000002457
pil02	226	2	2	8	21.0	14.0	0.55	1.0	loss	True	0.600734099999471
pil02	227	2	2	9	20.0	10.0	0.55	1.0	loss	False	0.2504105999996682
pil02	228	2	2	10	15.0	5.0	0.55	1.0	loss	True	0.3672008000003188
pil02	229	2	2	11	20.0	32.0	1.0	0.55	gain	False	0.5340070000002015
pil02	230	2	2	12	7.0	11.0	1.0	0.55	gain	True	0.4672155000007478
pil02	231	2	2	13	14.0	17.0	1.0	0.55	gain	False	0.3671954999999514
pil02	232	2	2	14	10.0	12.0	1.0	0.55	gain	False	0.4505837999995208
pil02	233	2	2	15	5.0	15.0	1.0	0.55	gain	True	0.2337369000006504
pil02	234	2	2	16	20.0	26.0	1.0	0.55	loss	True	0.3004905999996197
pil02	235	2	2	17	5.0	6.0	1.0	0.55	loss	True	0.8335956999999325
pil02	236	2	2	18	7.0	8.0	1.0	0.55	loss	True	0.4673204000000623
pil02	237	2	2	19	14.0	37.0	1.0	0.55	loss	False	0.7508158000000549
pil02	238	2	2	20	10.0	28.0	1.0	0.55	loss	True	0.4505591000006461
pil02	239	2	3	1	19.0	14.0	0.55	1.0	loss	True	1.001106300000174
pil02	240	2	3	2	12.0	10.0	0.55	1.0	loss	True	0.6509492999994109
pil02	241	2	3	3	23.0	20.0	0.55	1.0	loss	False	0.7509172999998555
pil02	242	2	3	4	11.0	7.0	0.55	1.0	loss	True	0.9335878000001684
pil02	243	2	3	5	8.0	5.0	0.55	1.0	loss	False	0.5340025999994396
pil02	244	2	3	6	10.0	14.0	1.0	0.55	gain	True	1.2513411999998425
pil02	245	2	3	7	20.0	23.0	1.0	0.55	gain	False	0.7002794999998656
pil02	246	2	3	8	7.0	13.0	1.0	0.55	gain	False	1.084469600000375
pil02	247	2	3	9	5.0	8.0	1.0	0.55	gain	False	0.6841954999999871
pil02	248	2	3	10	14.0	40.0	1.0	0.55	gain	True	0.2837749000000258
pil02	249	2	3	11	5.0	8.0	1.0	0.55	loss	True	0.433902599999783
pil02	250	2	3	12	7.0	15.0	1.0	0.55	loss	False	1.16790839999976
pil02	251	2	3	13	14.0	19.0	1.0	0.55	loss	True	0.517324299999899
pil02	252	2	3	14	10.0	16.0	1.0	0.55	loss	True	0.6841291000000638
pil02	253	2	3	15	20.0	24.0	1.0	0.55	loss	False	0.5374455999999554
pil02	254	2	3	16	17.0	14.0	0.55	1.0	gain	True	0.8008808000004137
pil02	255	2	3	17	10.0	7.0	0.55	1.0	gain	False	1.0010857999996006
pil02	256	2	3	18	11.0	5.0	0.55	1.0	gain	False	0.3672108999999182
pil02	257	2	3	19	21.0	10.0	0.55	1.0	gain	False	1.0011114999997517
pil02	258	2	3	20	29.0	20.0	0.55	1.0	gain	True	0.6002217000004748
pil02	259	2	4	1	8.0	7.0	0.55	1.0	gain	False	1.401202000000012
pil02	260	2	4	2	6.0	5.0	0.55	1.0	gain	True	0.3505007999992813
pil02	261	2	4	3	15.0	10.0	0.55	1.0	gain	True	0.8342873999999938
pil02	262	2	4	4	43.0	20.0	0.55	1.0	gain	False	0.3671541000003344
pil02	263	2	4	5	38.0	14.0	0.55	1.0	gain	False	0.6174235999996966
pil02	264	2	4	6	18.0	7.0	0.55	1.0	loss	True	0.4341497999994459
pil02	265	2	4	7	30.0	20.0	0.55	1.0	loss	True	0.8038249000001088
pil02	266	2	4	8	7.0	5.0	0.55	1.0	loss	True	0.4506237999994482
pil02	267	2	4	9	42.0	14.0	0.55	1.0	loss	True	0.5168010999995829
pil02	268	2	4	10	22.0	10.0	0.55	1.0	loss	True	0.533964800000831
pil02	269	2	4	11	7.0	9.0	1.0	0.55	gain	False	0.2838036999992255
pil02	270	2	4	12	20.0	55.0	1.0	0.55	gain	True	0.3511136999995585
pil02	271	2	4	13	5.0	12.0	1.0	0.55	gain	True	1.4347837000004802
pil02	272	2	4	14	14.0	25.0	1.0	0.55	gain	False	0.3838491999995312
pil02	273	2	4	15	10.0	24.0	1.0	0.55	gain	False	0.8509648000008383
pil02	274	2	4	16	10.0	17.0	1.0	0.55	loss	True	1.1345523999998477
pil02	275	2	4	17	5.0	7.0	1.0	0.55	loss	True	1.08443299999999
pil02	276	2	4	18	20.0	47.0	1.0	0.55	loss	False	0.6007460999999239
pil02	277	2	4	19	7.0	16.0	1.0	0.55	loss	False	1.4181515000000218
pil02	278	2	4	20	14.0	35.0	1.0	0.55	loss	False	0.4873790000001463
pil02	279	2	5	1	29.0	10.0	0.55	1.0	gain	False	0.4172871000000668
pil02	280	2	5	2	33.0	14.0	0.55	1.0	gain	False	0.4338874000004651
pil02	281	2	5	3	17.0	7.0	0.55	1.0	gain	False	0.7000600000001214
pil02	282	2	5	4	8.0	5.0	0.55	1.0	gain	True	0.7508152999998856
pil02	283	2	5	5	60.0	20.0	0.55	1.0	gain	False	0.8501225999998354
pil02	284	2	5	6	37.0	14.0	0.55	1.0	loss	True	1.204750399999284
pil02	285	2	5	7	47.0	20.0	0.55	1.0	loss	False	1.0011140999995405
pil02	286	2	5	8	15.0	10.0	0.55	1.0	loss	True	0.4835722999996505
pil02	287	2	5	9	7.0	5.0	0.55	1.0	loss	False	1.134495100000095
pil02	288	2	5	10	10.0	7.0	0.55	1.0	loss	True	0.5840408999993087
pil02	289	2	5	11	5.0	7.0	1.0	0.55	gain	False	0.349756200000229
pil02	290	2	5	12	7.0	19.0	1.0	0.55	gain	True	0.4839439000006393
pil02	291	2	5	13	10.0	17.0	1.0	0.55	gain	False	0.9676691000004212
pil02	292	2	5	14	14.0	24.0	1.0	0.55	gain	False	1.0677629000001332
pil02	293	2	5	15	20.0	24.0	1.0	0.55	gain	False	0.9176410000000031
pil02	294	2	5	16	20.0	30.0	1.0	0.55	loss	True	0.216918799999803
pil02	295	2	5	17	10.0	12.0	1.0	0.55	loss	True	0.9344202000002042
pil02	296	2	5	18	14.0	29.0	1.0	0.55	loss	False	0.4506455000000642
pil02	297	2	5	19	7.0	12.0	1.0	0.55	loss	False	0.7341528000006292
pil02	298	2	5	20	5.0	9.0	1.0	0.55	loss	True	0.4672729000003528
pil02	299	2	6	1	18.0	10.0	0.55	1.0	gain	False	0.3672285000002375
pil02	300	2	6	2	52.0	20.0	0.55	1.0	gain	True	0.8175584000000526
pil02	301	2	6	3	24.0	14.0	0.55	1.0	gain	False	0.5840898000005836
pil02	302	2	6	4	9.0	5.0	0.55	1.0	gain	False	0.2844369000004008
pil02	303	2	6	5	16.0	7.0	0.55	1.0	gain	False	0.5339884999993956
pil02	304	2	6	6	7.0	9.0	1.0	0.55	loss	True	0.5340396000001135
pil02	305	2	6	7	10.0	14.0	1.0	0.55	loss	True	0.5669150000003356
pil02	306	2	6	8	5.0	8.0	1.0	0.55	loss	True	0.4672737999999299
pil02	307	2	6	9	20.0	39.0	1.0	0.55	loss	True	0.8843238999997993
pil02	308	2	6	10	14.0	40.0	1.0	0.55	loss	False	0.9879524999996648
pil02	309	2	6	11	5.0	7.0	1.0	0.55	gain	True	0.6841295000003811
pil02	310	2	6	12	7.0	14.0	1.0	0.55	gain	True	0.8510310000001766
pil02	311	2	6	13	14.0	18.0	1.0	0.55	gain	False	0.7008230999999512
pil02	312	2	6	14	10.0	16.0	1.0	0.55	gain	False	0.8009084000004805
pil02	313	2	6	15	20.0	58.0	1.0	0.55	gain	True	0.350423599999857
pil02	314	2	6	16	24.0	14.0	0.55	1.0	loss	False	1.5515409999997871
pil02	315	2	6	17	11.0	5.0	0.55	1.0	loss	True	0.7008229999992182
pil02	316	2	6	18	24.0	10.0	0.55	1.0	loss	True	0.4005219000000863
pil02	317	2	6	19	9.0	7.0	0.55	1.0	loss	True	0.3171739999997953
pil02	318	2	6	20	32.0	20.0	0.55	1.0	loss	False	0.3994674000005034
pil02	319	2	7	1	11.0	7.0	0.55	1.0	gain	False	1.1512030000003506
pil02	320	2	7	2	41.0	20.0	0.55	1.0	gain	False	1.2012916000003315
pil02	321	2	7	3	20.0	10.0	0.55	1.0	gain	False	0.3838364000002912
pil02	322	2	7	4	8.0	5.0	0.55	1.0	gain	False	0.6841703999998572
pil02	323	2	7	5	35.0	14.0	0.55	1.0	gain	False	0.467181400000328
pil02	324	2	7	6	20.0	58.0	1.0	0.55	loss	True	1.9352840999999896
pil02	325	2	7	7	10.0	22.0	1.0	0.55	loss	False	0.9009870999998384
pil02	326	2	7	8	7.0	18.0	1.0	0.55	loss	False	0.5840667999991638
pil02	327	2	7	9	5.0	9.0	1.0	0.55	loss	True	0.9510539000002608
pil02	328	2	7	10	14.0	38.0	1.0	0.55	loss	False	0.5333418999998685
pil02	329	2	7	11	10.0	15.0	1.0	0.55	gain	False	0.6340612999993027
pil02	330	2	7	12	7.0	11.0	1.0	0.55	gain	False	0.9009931000000506
pil02	331	2	7	13	5.0	13.0	1.0	0.55	gain	True	0.616929099998714
pil02	332	2	7	14	14.0	33.0	1.0	0.55	gain	True	0.7008239000006427
pil02	333	2	7	15	20.0	29.0	1.0	0.55	gain	False	0.1169866999989608
pil02	334	2	7	16	30.0	10.0	0.55	1.0	loss	True	0.6668776000005892
pil02	335	2	7	17	7.0	5.0	0.55	1.0	loss	True	0.350521899999876
pil02	336	2	7	18	32.0	14.0	0.55	1.0	loss	False	0.4172008000005007
pil02	337	2	7	19	26.0	20.0	0.55	1.0	loss	True	1.368150299998888
pil02	338	2	7	20	15.0	7.0	0.55	1.0	loss	True	0.6174382999997761
pil02	339	2	8	1	9.0	7.0	0.55	1.0	gain	True	0.91676230000121
pil02	340	2	8	2	39.0	20.0	0.55	1.0	gain	True	1.2179030000006603
pil02	341	2	8	3	18.0	14.0	0.55	1.0	gain	True	1.4515544999994745
pil02	342	2	8	4	16.0	10.0	0.55	1.0	gain	True	0.7675603999996383
pil02	343	2	8	5	7.0	5.0	0.55	1.0	gain	False	0.5840012000007988
pil02	344	2	8	6	10.0	13.0	1.0	0.55	loss	True	0.6507383000007394
pil02	345	2	8	7	7.0	15.0	1.0	0.55	loss	False	0.6674705000004906
pil02	346	2	8	8	5.0	10.0	1.0	0.55	loss	False	1.5516423000008217
pil02	347	2	8	9	20.0	60.0	1.0	0.55	loss	False	0.6670114000007743
pil02	348	2	8	10	14.0	20.0	1.0	0.55	loss	True	1.1179443999990326
pil02	349	2	8	11	5.0	13.0	1.0	0.55	gain	True	1.284745799999655
pil02	350	2	8	12	20.0	50.0	1.0	0.55	gain	True	0.3998694000001705
pil02	351	2	8	13	14.0	22.0	1.0	0.55	gain	False	0.8343536000011227
pil02	352	2	8	14	10.0	15.0	1.0	0.55	gain	False	1.4348523000007845
pil02	353	2	8	15	7.0	15.0	1.0	0.55	gain	True	1.9519999000003736
pil02	354	2	8	16	15.0	10.0	0.55	1.0	loss	True	1.4348616999995727
pil02	355	2	8	17	33.0	20.0	0.55	1.0	loss	False	1.734147799999846
pil02	356	2	8	18	8.0	5.0	0.55	1.0	loss	True	0.4672398999991856
pil02	357	2	8	19	17.0	14.0	0.55	1.0	loss	True	0.8176389000000199
pil02	358	2	8	20	14.0	7.0	0.55	1.0	loss	False	1.154702099998758
pil02	359	2	9	1	15.0	7.0	0.55	1.0	gain	False	0.951045100000556
pil02	360	2	9	2	14.0	10.0	0.55	1.0	gain	True	1.4014633999995496
pil02	361	2	9	3	26.0	20.0	0.55	1.0	gain	True	0.4005612999990262
pil02	362	2	9	4	40.0	14.0	0.55	1.0	gain	False	0.2170580000001791
pil02	363	2	9	5	12.0	5.0	0.55	1.0	gain	False	0.6874271999986377
pil02	364	2	9	6	43.0	20.0	0.55	1.0	loss	True	0.9009739000011764
pil02	365	2	9	7	19.0	7.0	0.55	1.0	loss	True	0.8008871000001818
pil02	366	2	9	8	9.0	5.0	0.55	1.0	loss	True	0.2005356999998184
pil02	367	2	9	9	23.0	10.0	0.55	1.0	loss	True	0.867664400000649
pil02	368	2	9	10	38.0	14.0	0.55	1.0	loss	True	0.6502111999998306
pil02	369	2	9	11	14.0	30.0	1.0	0.55	gain	False	1.0011245999994571
pil02	370	2	9	12	10.0	13.0	1.0	0.55	gain	False	1.0178058999990751
pil02	371	2	9	13	5.0	8.0	1.0	0.55	gain	False	0.2668883999995159
pil02	372	2	9	14	7.0	12.0	1.0	0.55	gain	True	0.6841518000001088
pil02	373	2	9	15	20.0	35.0	1.0	0.55	gain	False	1.7351380000000065
pil02	374	2	9	16	20.0	52.0	1.0	0.55	loss	True	1.0836965999988024
pil02	375	2	9	17	10.0	20.0	1.0	0.55	loss	False	1.1346097000004534
pil02	376	2	9	18	7.0	20.0	1.0	0.55	loss	False	1.2513558999999077
pil02	377	2	9	19	14.0	21.0	1.0	0.55	loss	True	0.5006247000001167
pil02	378	2	9	20	5.0	12.0	1.0	0.55	loss	False	0.9344371000006504
pil02	379	2	10	1	5.0	11.0	1.0	0.55	gain	False	0.7676288999991812
pil02	380	2	10	2	7.0	9.0	1.0	0.55	gain	False	0.8676860999985365
pil02	381	2	10	3	14.0	35.0	1.0	0.55	gain	True	0.4005051999993156
pil02	382	2	10	4	10.0	28.0	1.0	0.55	gain	False	0.7508459999990009
pil02	383	2	10	5	20.0	33.0	1.0	0.55	gain	False	0.3503044999997655
pil02	384	2	10	6	7.0	13.0	1.0	0.55	loss	True	0.4839804000002772
pil02	385	2	10	7	5.0	15.0	1.0	0.55	loss	False	1.0011219000007117
pil02	386	2	10	8	14.0	25.0	1.0	0.55	loss	True	1.3333287000005072
pil02	387	2	10	9	10.0	23.0	1.0	0.55	loss	False	0.400561700000253
pil02	388	2	10	10	20.0	35.0	1.0	0.55	loss	False	0.7174654999999177
pil02	389	2	10	11	13.0	10.0	0.55	1.0	gain	True	1.4339830000008078
pil02	390	2	10	12	16.0	14.0	0.55	1.0	gain	False	0.8008641000014904
pil02	391	2	10	13	14.0	5.0	0.55	1.0	gain	False	0.8336613000010402
pil02	392	2	10	14	25.0	20.0	0.55	1.0	gain	False	0.7175315999993472
pil02	393	2	10	15	21.0	7.0	0.55	1.0	gain	False	0.1336983000000771
pil02	394	2	10	16	12.0	5.0	0.55	1.0	loss	False	0.2169599999997444
pil02	395	2	10	17	40.0	14.0	0.55	1.0	loss	True	0.2503963999988627
pil02	396	2	10	18	9.0	7.0	0.55	1.0	loss	False	0.5172936999988451
pil02	397	2	10	19	29.0	20.0	0.55	1.0	loss	False	0.68414920000032
pil02	398	2	10	20	21.0	10.0	0.55	1.0	loss	True	0.0502768000005744
pil03	1	1	1	1	15.0	10.0	0.55	1.0	gain	True	0.333594699999594
pil03	2	1	1	2	11.0	7.0	0.55	1.0	gain	False	0.1002993000001879
pil03	3	1	1	3	23.0	20.0	0.55	1.0	gain	True	0.1836958000003505
pil03	4	1	1	4	8.0	5.0	0.55	1.0	gain	False	0.3504782999998497
pil03	5	1	1	5	29.0	14.0	0.55	1.0	gain	False	0.2337127999999211
pil03	6	1	1	6	12.0	5.0	0.55	1.0	loss	False	0.0503073
pil03	7	1	1	7	30.0	14.0	0.55	1.0	loss	False	0.1836430999992444
pil03	8	1	1	8	12.0	7.0	0.55	1.0	loss	False	0.1836983000011969
pil03	9	1	1	9	14.0	10.0	0.55	1.0	loss	False	0.1669731000001775
pil03	10	1	1	10	52.0	20.0	0.55	1.0	loss	False	0.0669069999985367
pil03	11	1	1	11	20.0	60.0	1.0	0.55	gain	True	0.0022272000005614
pil03	12	1	1	12	14.0	25.0	1.0	0.55	gain	True	0.0501918000008743
pil03	13	1	1	13	7.0	15.0	1.0	0.55	gain	True	0.5840977999996824
pil03	14	1	1	14	5.0	6.0	1.0	0.55	gain	False	0.2671470999994199
pil03	15	1	1	15	10.0	12.0	1.0	0.55	gain	False	0.1837044000003516
pil03	16	1	1	16	14.0	21.0	1.0	0.55	loss	True	0.6341390000015963
pil03	17	1	1	17	10.0	17.0	1.0	0.55	loss	False	0.4336636000007843
pil03	18	1	1	18	20.0	23.0	1.0	0.55	loss	True	0.4505947000016022
pil03	19	1	1	19	5.0	7.0	1.0	0.55	loss	True	0.1336543999987043
pil03	20	1	1	20	7.0	10.0	1.0	0.55	loss	True	1.3011943000001338
pil03	21	1	2	1	20.0	7.0	0.55	1.0	loss	True	0.1169637999992119
pil03	22	1	2	2	10.0	5.0	0.55	1.0	loss	False	0.3838864999997895
pil03	23	1	2	3	29.0	20.0	0.55	1.0	loss	False	0.4002035000012256
pil03	24	1	2	4	29.0	10.0	0.55	1.0	loss	True	0.1503443000001425
pil03	25	1	2	5	33.0	14.0	0.55	1.0	loss	False	0.3507472000001144
pil03	26	1	2	6	10.0	22.0	1.0	0.55	gain	True	0.0835432999993059
pil03	27	1	2	7	20.0	43.0	1.0	0.55	gain	True	0.1003048000002166
pil03	28	1	2	8	7.0	8.0	1.0	0.55	gain	False	0.3672050999993956
pil03	29	1	2	9	5.0	12.0	1.0	0.55	gain	True	0.0026338000006944
pil03	30	1	2	10	14.0	18.0	1.0	0.55	gain	True	0.0502144999991287
pil03	31	1	2	11	14.0	25.0	1.0	0.55	loss	True	0.0669018000007781
pil03	32	1	2	12	20.0	41.0	1.0	0.55	loss	True	0.116932099999758
pil03	33	1	2	13	7.0	9.0	1.0	0.55	loss	True	0.1670021999998425
pil03	34	1	2	14	5.0	8.0	1.0	0.55	loss	True	0.916506199999276
pil03	35	1	2	15	10.0	12.0	1.0	0.55	loss	True	0.6006250999999168
pil03	36	1	2	16	32.0	20.0	0.55	1.0	gain	False	0.1336640999998053
pil03	37	1	2	17	17.0	7.0	0.55	1.0	gain	False	0.0336089999982505
pil03	38	1	2	18	8.0	5.0	0.55	1.0	gain	False	0.1336152999992919
pil03	39	1	2	19	16.0	14.0	0.55	1.0	gain	True	0.6503766999994696
pil03	40	1	2	20	23.0	10.0	0.55	1.0	gain	False	0.0169248000001971
pil03	41	1	3	1	10.0	18.0	1.0	0.55	loss	True	0.0022484000000986
pil03	42	1	3	2	20.0	50.0	1.0	0.55	loss	True	0.5171666999995068
pil03	43	1	3	3	14.0	33.0	1.0	0.55	loss	True	0.4940604999992501
pil03	44	1	3	4	5.0	14.0	1.0	0.55	loss	False	0.2670577999997476
pil03	45	1	3	5	7.0	14.0	1.0	0.55	loss	True	0.4839185999990008
pil03	46	1	3	6	5.0	13.0	1.0	0.55	gain	True	0.5004304000012922
pil03	47	1	3	7	7.0	11.0	1.0	0.55	gain	True	0.0835790000000713
pil03	48	1	3	8	10.0	28.0	1.0	0.55	gain	True	0.4837566000005608
pil03	49	1	3	9	14.0	29.0	1.0	0.55	gain	True	0.3671671000010974
pil03	50	1	3	10	20.0	26.0	1.0	0.55	gain	False	0.1336464999985764
pil03	51	1	3	11	17.0	14.0	0.55	1.0	loss	False	0.6005218000009336
pil03	52	1	3	12	41.0	20.0	0.55	1.0	loss	False	0.3672470000001056
pil03	53	1	3	13	9.0	5.0	0.55	1.0	loss	False	0.4005780000007064
pil03	54	1	3	14	10.0	7.0	0.55	1.0	loss	False	0.4838259999996808
pil03	55	1	3	15	12.0	10.0	0.55	1.0	loss	False	0.5840105999996013
pil03	56	1	3	16	17.0	10.0	0.55	1.0	gain	False	0.3338747999987106
pil03	57	1	3	17	60.0	20.0	0.55	1.0	gain	True	0.4672798999999941
pil03	58	1	3	18	19.0	14.0	0.55	1.0	gain	False	0.4672907999993185
pil03	59	1	3	19	19.0	7.0	0.55	1.0	gain	False	0.4173090000003867
pil03	60	1	3	20	13.0	5.0	0.55	1.0	gain	False	0.4172544000011839
pil03	61	1	4	1	7.0	21.0	1.0	0.55	loss	True	0.3671801000000414
pil03	62	1	4	2	10.0	16.0	1.0	0.55	loss	True	0.4840252000012697
pil03	63	1	4	3	5.0	7.0	1.0	0.55	loss	True	0.5205660999999964
pil03	64	1	4	4	14.0	18.0	1.0	0.55	loss	True	0.5840764000004128
pil03	65	1	4	5	20.0	39.0	1.0	0.55	loss	False	0.6501860000007582
pil03	66	1	4	6	20.0	55.0	1.0	0.55	gain	True	0.1002962999991865
pil03	67	1	4	7	10.0	17.0	1.0	0.55	gain	False	0.9844415999996272
pil03	68	1	4	8	5.0	11.0	1.0	0.55	gain	False	1.5175008999995327
pil03	69	1	4	9	7.0	16.0	1.0	0.55	gain	True	0.0668798000006063
pil03	70	1	4	10	14.0	21.0	1.0	0.55	gain	False	0.6841844000009587
pil03	71	1	4	11	12.0	5.0	0.55	1.0	loss	False	0.3169512000003749
pil03	72	1	4	12	22.0	14.0	0.55	1.0	loss	False	0.3338167000001704
pil03	73	1	4	13	18.0	7.0	0.55	1.0	loss	False	0.4172579999994639
pil03	74	1	4	14	28.0	10.0	0.55	1.0	loss	False	0.2671017000011773
pil03	75	1	4	15	27.0	20.0	0.55	1.0	loss	False	0.517306800000398
pil03	76	1	4	16	13.0	10.0	0.55	1.0	gain	False	0.6334397000009915
pil03	77	1	4	17	6.0	5.0	0.55	1.0	gain	True	0.1002560000015648
pil03	78	1	4	18	47.0	20.0	0.55	1.0	gain	False	0.6341279999996914
pil03	79	1	4	19	19.0	7.0	0.55	1.0	gain	False	0.3505141999994521
pil03	80	1	4	20	25.0	14.0	0.55	1.0	gain	True	0.5506934999993973
pil03	81	1	5	1	38.0	14.0	0.55	1.0	gain	False	0.3001924000000144
pil03	82	1	5	2	28.0	10.0	0.55	1.0	gain	False	0.3004488999995374
pil03	83	1	5	3	52.0	20.0	0.55	1.0	gain	False	0.2504136000006838
pil03	84	1	5	4	15.0	7.0	0.55	1.0	gain	False	0.3838742999996611
pil03	85	1	5	5	7.0	5.0	0.55	1.0	gain	False	0.317221100000097
pil03	86	1	5	6	14.0	19.0	1.0	0.55	loss	True	0.6171786000013526
pil03	87	1	5	7	10.0	23.0	1.0	0.55	loss	True	0.0335553000004296
pil03	88	1	5	8	20.0	35.0	1.0	0.55	loss	True	0.5173584999993182
pil03	89	1	5	9	5.0	7.0	1.0	0.55	loss	True	0.0668910999993386
pil03	90	1	5	10	7.0	8.0	1.0	0.55	loss	True	0.002424800000881
pil03	91	1	5	11	10.0	29.0	1.0	0.55	gain	True	1.251274199999898
pil03	92	1	5	12	5.0	6.0	1.0	0.55	gain	False	0.7342059000002337
pil03	93	1	5	13	14.0	20.0	1.0	0.55	gain	True	0.50044120000166
pil03	94	1	5	14	20.0	32.0	1.0	0.55	gain	False	7.308360700000748
pil03	95	1	5	15	7.0	9.0	1.0	0.55	gain	True	0.9343862999994316
pil03	96	1	5	16	15.0	5.0	0.55	1.0	loss	False	0.7175508000000264
pil03	97	1	5	17	47.0	20.0	0.55	1.0	loss	False	0.4506160999990243
pil03	98	1	5	18	18.0	14.0	0.55	1.0	loss	False	0.3838946000014402
pil03	99	1	5	19	15.0	7.0	0.55	1.0	loss	False	0.7174623999999312
pil03	100	1	5	20	26.0	10.0	0.55	1.0	loss	False	0.6007437000007485
pil03	101	1	6	1	7.0	15.0	1.0	0.55	loss	True	0.7341959000004863
pil03	102	1	6	2	20.0	60.0	1.0	0.55	loss	True	0.7175761999988026
pil03	103	1	6	3	5.0	8.0	1.0	0.55	loss	True	0.5502888999999413
pil03	104	1	6	4	14.0	42.0	1.0	0.55	loss	False	0.634079199999178
pil03	105	1	6	5	10.0	14.0	1.0	0.55	loss	True	0.3338506999989477
pil03	106	1	6	6	5.0	8.0	1.0	0.55	gain	False	0.3170910999997147
pil03	107	1	6	7	14.0	40.0	1.0	0.55	gain	True	0.0836443999996845
pil03	108	1	6	8	20.0	58.0	1.0	0.55	gain	True	0.2837010999992344
pil03	109	1	6	9	7.0	21.0	1.0	0.55	gain	True	0.1002795999993395
pil03	110	1	6	10	10.0	16.0	1.0	0.55	gain	True	0.002780700000585
pil03	111	1	6	11	11.0	5.0	0.55	1.0	loss	True	1.0504290999997463
pil03	112	1	6	12	58.0	20.0	0.55	1.0	loss	False	0.9343274000002566
pil03	113	1	6	13	21.0	14.0	0.55	1.0	loss	False	0.2837404000001413
pil03	114	1	6	14	18.0	10.0	0.55	1.0	loss	False	0.2504253000006429
pil03	115	1	6	15	10.0	7.0	0.55	1.0	loss	False	0.4172285000004194
pil03	116	1	6	16	12.0	10.0	0.55	1.0	gain	False	0.5173150999998768
pil03	117	1	6	17	18.0	14.0	0.55	1.0	gain	False	0.500656500000332
pil03	118	1	6	18	41.0	20.0	0.55	1.0	gain	True	0.183782500000234
pil03	119	1	6	19	11.0	5.0	0.55	1.0	gain	False	0.4002777000005153
pil03	120	1	6	20	9.0	7.0	0.55	1.0	gain	True	1.0845430999997916
pil03	121	1	7	1	10.0	18.0	1.0	0.55	gain	False	0.2836963999998261
pil03	122	1	7	2	7.0	10.0	1.0	0.55	gain	True	0.2170568000001367
pil03	123	1	7	3	5.0	15.0	1.0	0.55	gain	True	0.5005234999989625
pil03	124	1	7	4	14.0	35.0	1.0	0.55	gain	True	0.1839116000010108
pil03	125	1	7	5	20.0	33.0	1.0	0.55	gain	False	0.6174184999999994
pil03	126	1	7	6	14.0	38.0	1.0	0.55	loss	True	0.8342573999998564
pil03	127	1	7	7	5.0	12.0	1.0	0.55	loss	True	0.2171429000009226
pil03	128	1	7	8	7.0	19.0	1.0	0.55	loss	True	0.98442040000009
pil03	129	1	7	9	10.0	15.0	1.0	0.55	loss	True	0.0501757000001816
pil03	130	1	7	10	20.0	58.0	1.0	0.55	loss	True	0.7174783000009484
pil03	131	1	7	11	14.0	5.0	0.55	1.0	gain	False	0.6674469999998109
pil03	132	1	7	12	17.0	14.0	0.55	1.0	gain	True	1.016935899999197
pil03	133	1	7	13	24.0	20.0	0.55	1.0	gain	True	0.1002533999999286
pil03	134	1	7	14	22.0	10.0	0.55	1.0	gain	False	0.2003481000010651
pil03	135	1	7	15	9.0	7.0	0.55	1.0	gain	False	0.4840344000003824
pil03	136	1	7	16	24.0	10.0	0.55	1.0	loss	True	0.8009750000000793
pil03	137	1	7	17	55.0	20.0	0.55	1.0	loss	False	0.567384599999059
pil03	138	1	7	18	35.0	14.0	0.55	1.0	loss	False	0.1169227999998838
pil03	139	1	7	19	9.0	5.0	0.55	1.0	loss	False	0.2838050999998813
pil03	140	1	7	20	17.0	7.0	0.55	1.0	loss	True	0.6369453000006615
pil03	141	1	8	1	14.0	32.0	1.0	0.55	loss	True	0.5173236999999062
pil03	142	1	8	2	5.0	11.0	1.0	0.55	loss	True	0.10028500000044
pil03	143	1	8	3	10.0	20.0	1.0	0.55	loss	True	0.0023655999993934
pil03	144	1	8	4	7.0	18.0	1.0	0.55	loss	False	0.667446800000107
pil03	145	1	8	5	20.0	26.0	1.0	0.55	loss	True	0.4172579000005356
pil03	146	1	8	6	10.0	15.0	1.0	0.55	gain	False	0.4338830000015292
pil03	147	1	8	7	5.0	13.0	1.0	0.55	gain	True	0.0334564000004462
pil03	148	1	8	8	7.0	11.0	1.0	0.55	gain	True	0.2504131000005145
pil03	149	1	8	9	14.0	32.0	1.0	0.55	gain	True	0.2504255000003468
pil03	150	1	8	10	20.0	24.0	1.0	0.55	gain	False	0.9009634000012738
pil03	151	1	8	11	14.0	7.0	0.55	1.0	loss	False	0.2837658999997074
pil03	152	1	8	12	14.0	5.0	0.55	1.0	loss	False	0.7341818000004423
pil03	153	1	8	13	25.0	20.0	0.55	1.0	loss	False	0.0023847000011301
pil03	154	1	8	14	18.0	14.0	0.55	1.0	loss	False	0.5840754000000459
pil03	155	1	8	15	13.0	10.0	0.55	1.0	loss	False	0.2002023999993412
pil03	156	1	8	16	40.0	14.0	0.55	1.0	gain	False	0.7842409999993549
pil03	157	1	8	17	58.0	20.0	0.55	1.0	gain	False	0.1169675999990431
pil03	158	1	8	18	12.0	7.0	0.55	1.0	gain	False	0.3502596999987872
pil03	159	1	8	19	9.0	5.0	0.55	1.0	gain	False	0.5340446000009251
pil03	160	1	8	20	21.0	10.0	0.55	1.0	gain	False	0.2834944000005635
pil03	161	1	9	1	7.0	19.0	1.0	0.55	gain	True	0.4838365999985399
pil03	162	1	9	2	14.0	30.0	1.0	0.55	gain	False	0.1837172000014106
pil03	163	1	9	3	5.0	15.0	1.0	0.55	gain	True	0.6004296999999497
pil03	164	1	9	4	20.0	30.0	1.0	0.55	gain	True	0.2337610999984463
pil03	165	1	9	5	10.0	13.0	1.0	0.55	gain	True	0.6173145000011573
pil03	166	1	9	6	39.0	20.0	0.55	1.0	loss	False	0.3334068000003753
pil03	167	1	9	7	17.0	10.0	0.55	1.0	loss	False	0.4172202999998404
pil03	168	1	9	8	11.0	7.0	0.55	1.0	loss	False	0.4005407000004197
pil03	169	1	9	9	24.0	14.0	0.55	1.0	loss	False	0.9510883999992076
pil03	170	1	9	10	7.0	5.0	0.55	1.0	loss	False	0.3505297000010614
pil03	171	1	9	11	37.0	14.0	0.55	1.0	gain	False	0.2337451000003056
pil03	172	1	9	12	12.0	5.0	0.55	1.0	gain	False	0.5340169000009496
pil03	173	1	9	13	18.0	10.0	0.55	1.0	gain	False	0.5173343000005559
pil03	174	1	9	14	8.0	7.0	0.55	1.0	gain	True	0.2172484999991866
pil03	175	1	9	15	55.0	20.0	0.55	1.0	gain	True	0.2503977999986091
pil03	176	1	9	16	7.0	13.0	1.0	0.55	loss	True	0.9010696999994536
pil03	177	1	9	17	20.0	32.0	1.0	0.55	loss	True	0.2003767000005609
pil03	178	1	9	18	10.0	28.0	1.0	0.55	loss	True	0.2003886999991664
pil03	179	1	9	19	5.0	11.0	1.0	0.55	loss	True	0.4172209999996994
pil03	180	1	9	20	14.0	35.0	1.0	0.55	loss	False	0.2837687999999616
pil03	181	1	10	1	14.0	40.0	1.0	0.55	loss	True	0.817611799999213
pil03	182	1	10	2	7.0	12.0	1.0	0.55	loss	True	0.1002354000011109
pil03	183	1	10	3	5.0	8.0	1.0	0.55	loss	True	0.0835987999998906
pil03	184	1	10	4	20.0	43.0	1.0	0.55	loss	False	0.966804100000445
pil03	185	1	10	5	10.0	25.0	1.0	0.55	loss	True	1.1011560000006142
pil03	186	1	10	6	5.0	8.0	1.0	0.55	gain	True	0.3338134999994366
pil03	187	1	10	7	7.0	17.0	1.0	0.55	gain	True	0.3838141999986106
pil03	188	1	10	8	20.0	23.0	1.0	0.55	gain	False	0.4005548999994062
pil03	189	1	10	9	14.0	18.0	1.0	0.55	gain	False	0.5840824000006251
pil03	190	1	10	10	10.0	20.0	1.0	0.55	gain	True	0.517339300000458
pil03	191	1	10	11	26.0	20.0	0.55	1.0	loss	False	0.6674598999998125
pil03	192	1	10	12	9.0	7.0	0.55	1.0	loss	False	0.3336237000003166
pil03	193	1	10	13	42.0	14.0	0.55	1.0	loss	False	0.4839580000007117
pil03	194	1	10	14	8.0	5.0	0.55	1.0	loss	False	0.0168913999987125
pil03	195	1	10	15	30.0	10.0	0.55	1.0	loss	False	0.5843929999991815
pil03	196	1	10	16	20.0	10.0	0.55	1.0	gain	False	0.3672270000006392
pil03	197	1	10	17	8.0	5.0	0.55	1.0	gain	True	1.0343788000009226
pil03	198	1	10	18	30.0	14.0	0.55	1.0	gain	True	0.2003774000004341
pil03	199	1	10	19	30.0	20.0	0.55	1.0	gain	True	0.2170489999989513
pil03	200	1	10	20	15.0	7.0	0.55	1.0	gain	False	0.2837006999998266
pil03	201	2	1	1	5.0	14.0	1.0	0.55	gain	True	0.5505446999995911
pil03	202	2	1	2	10.0	21.0	1.0	0.55	gain	False	0.2837207000011403
pil03	203	2	1	3	7.0	9.0	1.0	0.55	gain	False	0.233724900001107
pil03	204	2	1	4	20.0	52.0	1.0	0.55	gain	False	0.5501640000002226
pil03	205	2	1	5	14.0	17.0	1.0	0.55	gain	False	0.3505100000002272
pil03	206	2	1	6	5.0	15.0	1.0	0.55	loss	True	0.3004523000017798
pil03	207	2	1	7	7.0	10.0	1.0	0.55	loss	True	0.5506800999974075
pil03	208	2	1	8	10.0	29.0	1.0	0.55	loss	False	0.267073300001357
pil03	209	2	1	9	14.0	30.0	1.0	0.55	loss	True	0.150277199998527
pil03	210	2	1	10	20.0	55.0	1.0	0.55	loss	True	0.7675731999988784
pil03	211	2	1	11	27.0	20.0	0.55	1.0	gain	False	0.784249399999652
pil03	212	2	1	12	20.0	14.0	0.55	1.0	gain	False	0.3842688000004273
pil03	213	2	1	13	24.0	10.0	0.55	1.0	gain	False	0.3671910000011849
pil03	214	2	1	14	16.0	7.0	0.55	1.0	gain	False	0.2837856999976793
pil03	215	2	1	15	10.0	5.0	0.55	1.0	gain	False	0.500673799997486
pil03	216	2	1	16	21.0	10.0	0.55	1.0	loss	True	0.4505878999989363
pil03	217	2	1	17	19.0	14.0	0.55	1.0	loss	False	0.3672257999969588
pil03	218	2	1	18	13.0	5.0	0.55	1.0	loss	False	0.4505621999996947
pil03	219	2	1	19	33.0	20.0	0.55	1.0	loss	True	0.8342936999979429
pil03	220	2	1	20	9.0	7.0	0.55	1.0	loss	False	0.2835865999986708
pil03	221	2	2	1	20.0	45.0	1.0	0.55	loss	True	0.4339531000005081
pil03	222	2	2	2	10.0	21.0	1.0	0.55	loss	True	0.3668765000002167
pil03	223	2	2	3	7.0	17.0	1.0	0.55	loss	True	0.1169602000009035
pil03	224	2	2	4	5.0	6.0	1.0	0.55	loss	True	0.0335177999986626
pil03	225	2	2	5	14.0	22.0	1.0	0.55	loss	True	0.1837425000012444
pil03	226	2	2	6	9.0	5.0	0.55	1.0	gain	True	0.5340905000011986
pil03	227	2	2	7	26.0	10.0	0.55	1.0	gain	False	0.2003882999997586
pil03	228	2	2	8	35.0	20.0	0.55	1.0	gain	True	0.6843335000012303
pil03	229	2	2	9	21.0	14.0	0.55	1.0	gain	False	0.6341744999990624
pil03	230	2	2	10	10.0	7.0	0.55	1.0	gain	False	0.4337006999994628
pil03	231	2	2	11	50.0	20.0	0.55	1.0	loss	False	0.5173506999999518
pil03	232	2	2	12	11.0	7.0	0.55	1.0	loss	False	0.1503207999994913
pil03	233	2	2	13	29.0	14.0	0.55	1.0	loss	False	0.4003510000002563
pil03	234	2	2	14	7.0	5.0	0.55	1.0	loss	False	0.3505513999989489
pil03	235	2	2	15	13.0	10.0	0.55	1.0	loss	False	0.4505941999995855
pil03	236	2	2	16	14.0	42.0	1.0	0.55	gain	True	0.3498178000008636
pil03	237	2	2	17	10.0	24.0	1.0	0.55	gain	True	0.1002816000000166
pil03	238	2	2	18	5.0	9.0	1.0	0.55	gain	False	0.7174177999986568
pil03	239	2	2	19	20.0	29.0	1.0	0.55	gain	False	0.5507150999983423
pil03	240	2	2	20	7.0	12.0	1.0	0.55	gain	False	0.6007304000013391
pil03	241	2	3	1	20.0	52.0	1.0	0.55	loss	False	1.2013755000007222
pil03	242	2	3	2	14.0	24.0	1.0	0.55	loss	True	0.5454715000014403
pil03	243	2	3	3	10.0	13.0	1.0	0.55	loss	True	0.116961399999127
pil03	244	2	3	4	5.0	6.0	1.0	0.55	loss	True	0.5005135999999766
pil03	245	2	3	5	7.0	9.0	1.0	0.55	loss	True	0.433743099998523
pil03	246	2	3	6	5.0	12.0	1.0	0.55	gain	True	0.4173145999994005
pil03	247	2	3	7	7.0	14.0	1.0	0.55	gain	True	0.5169687000015841
pil03	248	2	3	8	10.0	15.0	1.0	0.55	gain	True	0.4839609000009659
pil03	249	2	3	9	20.0	50.0	1.0	0.55	gain	True	0.1169281000002229
pil03	250	2	3	10	14.0	38.0	1.0	0.55	gain	True	0.167111400001886
pil03	251	2	3	11	7.0	5.0	0.55	1.0	loss	False	0.0168336999995517
pil03	252	2	3	12	16.0	10.0	0.55	1.0	loss	False	0.5340255000010075
pil03	253	2	3	13	15.0	7.0	0.55	1.0	loss	False	0.2837823999980173
pil03	254	2	3	14	60.0	20.0	0.55	1.0	loss	False	0.4339226000010683
pil03	255	2	3	15	20.0	14.0	0.55	1.0	loss	False	0.4003178999992087
pil03	256	2	3	16	15.0	5.0	0.55	1.0	gain	False	0.4006354999983159
pil03	257	2	3	17	35.0	14.0	0.55	1.0	gain	True	0.2004029999989143
pil03	258	2	3	18	14.0	10.0	0.55	1.0	gain	True	0.4842190999988816
pil03	259	2	3	19	10.0	7.0	0.55	1.0	gain	False	0.1837048000015784
pil03	260	2	3	20	26.0	20.0	0.55	1.0	gain	False	0.399814399999741
pil03	261	2	4	1	12.0	5.0	0.55	1.0	gain	False	0.4172341000012238
pil03	262	2	4	2	16.0	10.0	0.55	1.0	gain	True	0.2337829999996756
pil03	263	2	4	3	14.0	7.0	0.55	1.0	gain	False	0.1670341999997617
pil03	264	2	4	4	29.0	20.0	0.55	1.0	gain	True	0.4837831999975606
pil03	265	2	4	5	32.0	14.0	0.55	1.0	gain	False	0.1004947999972643
pil03	266	2	4	6	14.0	29.0	1.0	0.55	loss	True	0.4839635999996829
pil03	267	2	4	7	10.0	12.0	1.0	0.55	loss	True	0.4672114999993937
pil03	268	2	4	8	7.0	15.0	1.0	0.55	loss	True	0.0502653000003192
pil03	269	2	4	9	5.0	13.0	1.0	0.55	loss	True	0.3338425000001734
pil03	270	2	4	10	20.0	24.0	1.0	0.55	loss	True	0.383669100003317
pil03	271	2	4	11	14.0	24.0	1.0	0.55	gain	True	0.1670173999991675
pil03	272	2	4	12	10.0	13.0	1.0	0.55	gain	True	0.133629299998546
pil03	273	2	4	13	5.0	8.0	1.0	0.55	gain	False	0.7502431000029901
pil03	274	2	4	14	20.0	27.0	1.0	0.55	gain	True	0.2170441999988099
pil03	275	2	4	15	7.0	10.0	1.0	0.55	gain	False	0.4005233999996562
pil03	276	2	4	16	25.0	10.0	0.55	1.0	loss	False	0.6672214000027452
pil03	277	2	4	17	6.0	5.0	0.55	1.0	loss	False	0.2837271000025794
pil03	278	2	4	18	25.0	14.0	0.55	1.0	loss	False	0.5333594000003075
pil03	279	2	4	19	19.0	7.0	0.55	1.0	loss	False	0.700840599998628
pil03	280	2	4	20	24.0	20.0	0.55	1.0	loss	False	0.0335535000012896
pil03	281	2	5	1	20.0	35.0	1.0	0.55	gain	False	0.1503000000011525
pil03	282	2	5	2	14.0	19.0	1.0	0.55	gain	True	0.2837951000001339
pil03	283	2	5	3	10.0	25.0	1.0	0.55	gain	True	0.5835254000012355
pil03	284	2	5	4	5.0	7.0	1.0	0.55	gain	True	0.7175209999986691
pil03	285	2	5	5	7.0	19.0	1.0	0.55	gain	True	0.3004790000013599
pil03	286	2	5	6	5.0	10.0	1.0	0.55	loss	True	0.5337193999985033
pil03	287	2	5	7	14.0	16.0	1.0	0.55	loss	True	0.4172792000026533
pil03	288	2	5	8	7.0	11.0	1.0	0.55	loss	True	0.5173442999985127
pil03	289	2	5	9	10.0	30.0	1.0	0.55	loss	True	0.667485800000577
pil03	290	2	5	10	20.0	25.0	1.0	0.55	loss	True	0.0023187000006146
pil03	291	2	5	11	12.0	10.0	0.55	1.0	gain	False	1.4504325999987486
pil03	292	2	5	12	25.0	20.0	0.55	1.0	gain	True	0.0023267999968084
pil03	293	2	5	13	13.0	7.0	0.55	1.0	gain	False	0.2170750999976007
pil03	294	2	5	14	15.0	5.0	0.55	1.0	gain	False	0.2337337999997544
pil03	295	2	5	15	18.0	14.0	0.55	1.0	gain	False	0.3505567000029259
pil03	296	2	5	16	12.0	10.0	0.55	1.0	loss	False	0.5506786000005377
pil03	297	2	5	17	19.0	7.0	0.55	1.0	loss	False	0.6007421000031172
pil03	298	2	5	18	27.0	14.0	0.55	1.0	loss	True	0.5340310999999929
pil03	299	2	5	19	8.0	5.0	0.55	1.0	loss	False	0.1169133999974292
pil03	300	2	5	20	23.0	20.0	0.55	1.0	loss	False	0.4005555999974604
pil03	301	2	6	1	45.0	20.0	0.55	1.0	loss	False	0.5174372000001313
pil03	302	2	6	2	16.0	7.0	0.55	1.0	loss	False	0.3332532000022183
pil03	303	2	6	3	32.0	14.0	0.55	1.0	loss	False	0.1169942000014998
pil03	304	2	6	4	15.0	10.0	0.55	1.0	loss	False	0.2336875000000873
pil03	305	2	6	5	15.0	5.0	0.55	1.0	loss	True	0.4371681000011165
pil03	306	2	6	6	7.0	5.0	0.55	1.0	gain	False	0.4672774999999234
pil03	307	2	6	7	43.0	20.0	0.55	1.0	gain	False	0.1503919999995702
pil03	308	2	6	8	20.0	7.0	0.55	1.0	gain	False	0.3338244000005943
pil03	309	2	6	9	25.0	10.0	0.55	1.0	gain	False	0.31718120000005
pil03	310	2	6	10	24.0	14.0	0.55	1.0	gain	False	0.3173004999989643
pil03	311	2	6	11	14.0	17.0	1.0	0.55	loss	True	0.8009390000006817
pil03	312	2	6	12	5.0	12.0	1.0	0.55	loss	False	0.350476799998404
pil03	313	2	6	13	20.0	30.0	1.0	0.55	loss	False	0.5011301999984425
pil03	314	2	6	14	10.0	15.0	1.0	0.55	loss	True	0.1169381999971221
pil03	315	2	6	15	7.0	20.0	1.0	0.55	loss	True	0.3502946000007512
pil03	316	2	6	16	7.0	9.0	1.0	0.55	gain	True	0.3837911999980861
pil03	317	2	6	17	5.0	7.0	1.0	0.55	gain	False	0.8676895999997782
pil03	318	2	6	18	10.0	26.0	1.0	0.55	gain	True	0.4502467999991495
pil03	319	2	6	19	20.0	45.0	1.0	0.55	gain	False	0.2337760999980673
pil03	320	2	6	20	14.0	16.0	1.0	0.55	gain	False	0.2837892999996256
pil03	321	2	7	1	7.0	9.0	1.0	0.55	loss	True	0.0502455999994708
pil03	322	2	7	2	20.0	27.0	1.0	0.55	loss	True	0.4505976000000373
pil03	323	2	7	3	10.0	26.0	1.0	0.55	loss	True	0.5840879999996105
pil03	324	2	7	4	5.0	15.0	1.0	0.55	loss	True	0.1670149999990826
pil03	325	2	7	5	14.0	20.0	1.0	0.55	loss	True	0.1497314000007463
pil03	326	2	7	6	5.0	10.0	1.0	0.55	gain	True	0.9343952000017596
pil03	327	2	7	7	7.0	18.0	1.0	0.55	gain	True	0.1335886000015165
pil03	328	2	7	8	14.0	27.0	1.0	0.55	gain	True	0.2170970000006491
pil03	329	2	7	9	20.0	47.0	1.0	0.55	gain	True	6.022330100000545
pil03	330	2	7	10	10.0	30.0	1.0	0.55	gain	True	0.4501736999991408
pil03	331	2	7	11	8.0	5.0	0.55	1.0	loss	False	0.3504599000007147
pil03	332	2	7	12	35.0	20.0	0.55	1.0	loss	False	0.3838838000010867
pil03	333	2	7	13	40.0	14.0	0.55	1.0	loss	False	0.2667497000002186
pil03	334	2	7	14	22.0	10.0	0.55	1.0	loss	True	0.1502832000005582
pil03	335	2	7	15	21.0	7.0	0.55	1.0	loss	False	0.3672320999976364
pil03	336	2	7	16	18.0	7.0	0.55	1.0	gain	False	0.2666379000002052
pil03	337	2	7	17	11.0	5.0	0.55	1.0	gain	False	0.1337182000024768
pil03	338	2	7	18	15.0	10.0	0.55	1.0	gain	False	0.2337205999974685
pil03	339	2	7	19	22.0	14.0	0.55	1.0	gain	True	0.4837942999984079
pil03	340	2	7	20	50.0	20.0	0.55	1.0	gain	False	0.2671889000012015
pil03	341	2	8	1	7.0	13.0	1.0	0.55	gain	False	0.3831460000001243
pil03	342	2	8	2	5.0	9.0	1.0	0.55	gain	False	0.3838672000019869
pil03	343	2	8	3	14.0	22.0	1.0	0.55	gain	False	0.3671780000004219
pil03	344	2	8	4	20.0	25.0	1.0	0.55	gain	False	0.3170968999984325
pil03	345	2	8	5	10.0	12.0	1.0	0.55	gain	False	0.8343287999996392
pil03	346	2	8	6	14.0	18.0	1.0	0.55	loss	True	0.5134672000021823
pil03	347	2	8	7	10.0	24.0	1.0	0.55	loss	True	0.3004690999987645
pil03	348	2	8	8	7.0	19.0	1.0	0.55	loss	True	0.5006909000003361
pil03	349	2	8	9	20.0	47.0	1.0	0.55	loss	True	0.200414400002046
pil03	350	2	8	10	5.0	9.0	1.0	0.55	loss	True	0.3505106000011437
pil03	351	2	8	11	27.0	14.0	0.55	1.0	gain	True	0.6340944000003219
pil03	352	2	8	12	11.0	7.0	0.55	1.0	gain	True	0.687392100000551
pil03	353	2	8	13	33.0	20.0	0.55	1.0	gain	True	0.4172557000019878
pil03	354	2	8	14	29.0	10.0	0.55	1.0	gain	False	0.3168954000029771
pil03	355	2	8	15	7.0	5.0	0.55	1.0	gain	True	0.5506578000022273
pil03	356	2	8	16	32.0	20.0	0.55	1.0	loss	False	0.4006304999966232
pil03	357	2	8	17	38.0	14.0	0.55	1.0	loss	False	0.7501589999992575
pil03	358	2	8	18	11.0	5.0	0.55	1.0	loss	False	0.3338886000019556
pil03	359	2	8	19	23.0	10.0	0.55	1.0	loss	False	0.5840558000018063
pil03	360	2	8	20	13.0	7.0	0.55	1.0	loss	False	0.3504683999999542
pil03	361	2	9	1	30.0	10.0	0.55	1.0	gain	False	0.8843636000019615
pil03	362	2	9	2	9.0	7.0	0.55	1.0	gain	True	0.1000887000009242
pil03	363	2	9	3	45.0	20.0	0.55	1.0	gain	True	0.3338349999976344
pil03	364	2	9	4	33.0	14.0	0.55	1.0	gain	False	0.2003804000014497
pil03	365	2	9	5	6.0	5.0	0.55	1.0	gain	False	0.7675481000005817
pil03	366	2	9	6	13.0	5.0	0.55	1.0	loss	False	0.5673477000018465
pil03	367	2	9	7	43.0	20.0	0.55	1.0	loss	False	0.483967700001827
pil03	368	2	9	8	16.0	14.0	0.55	1.0	loss	False	0.4672411999999895
pil03	369	2	9	9	15.0	10.0	0.55	1.0	loss	False	0.600776100000104
pil03	370	2	9	10	9.0	7.0	0.55	1.0	loss	False	0.1168397000001277
pil03	371	2	9	11	10.0	14.0	1.0	0.55	gain	False	0.2170413999992888
pil03	372	2	9	12	7.0	20.0	1.0	0.55	gain	True	0.5338135000019975
pil03	373	2	9	13	20.0	41.0	1.0	0.55	gain	True	0.3677278000031947
pil03	374	2	9	14	14.0	37.0	1.0	0.55	gain	True	0.4172509000018181
pil03	375	2	9	15	5.0	11.0	1.0	0.55	gain	True	0.216874400000961
pil03	376	2	9	16	20.0	33.0	1.0	0.55	loss	True	0.2670685000012156
pil03	377	2	9	17	14.0	37.0	1.0	0.55	loss	False	0.6841184000004432
pil03	378	2	9	18	7.0	11.0	1.0	0.55	loss	True	0.3669264000018302
pil03	379	2	9	19	5.0	9.0	1.0	0.55	loss	True	0.2837677999996231
pil03	380	2	9	20	10.0	22.0	1.0	0.55	loss	True	0.4506012999991071
pil03	381	2	10	1	20.0	29.0	1.0	0.55	loss	True	0.2670838999983971
pil03	382	2	10	2	14.0	27.0	1.0	0.55	loss	True	0.2837800999986939
pil03	383	2	10	3	7.0	16.0	1.0	0.55	loss	True	0.0502411000015854
pil03	384	2	10	4	10.0	13.0	1.0	0.55	loss	True	0.4810484999979962
pil03	385	2	10	5	5.0	13.0	1.0	0.55	loss	False	0.6502490999992006
pil03	386	2	10	6	39.0	20.0	0.55	1.0	gain	True	0.2837868000024031
pil03	387	2	10	7	21.0	7.0	0.55	1.0	gain	False	0.7842469999995956
pil03	388	2	10	8	13.0	5.0	0.55	1.0	gain	False	0.3168979999973089
pil03	389	2	10	9	13.0	10.0	0.55	1.0	gain	True	1.1345278000007966
pil03	390	2	10	10	42.0	14.0	0.55	1.0	gain	False	0.3838759999998729
pil03	391	2	10	11	20.0	10.0	0.55	1.0	loss	False	0.48519479999959
pil03	392	2	10	12	6.0	5.0	0.55	1.0	loss	True	0.417262700000748
pil03	393	2	10	13	37.0	14.0	0.55	1.0	loss	False	0.6841676000003645
pil03	394	2	10	14	8.0	7.0	0.55	1.0	loss	False	0.5507275999989076
pil03	395	2	10	15	30.0	20.0	0.55	1.0	loss	False	0.4839782999988529
pil03	396	2	10	16	5.0	7.0	1.0	0.55	gain	False	0.7669552000006377
pil03	397	2	10	17	7.0	15.0	1.0	0.55	gain	True	0.2004168999992543
pil03	398	2	10	18	10.0	23.0	1.0	0.55	gain	False	0.0168792999975266
pil03	399	2	10	19	20.0	39.0	1.0	0.55	gain	False	0.3004122999991523
pil03	400	2	10	20	14.0	33.0	1.0	0.55	gain	True	0.5004461999997147
